session_id,participant_id,timestamp,trial_number,block_type,stimulus,response,correct,reaction_time,text_color,background_color,is_word,choices_presented
7776781c-09a7-47db-b844-975caaae7858,c1f3c196-36db-452e-aceb-61b2552ca2e2,2025-09-24T16:37:57.780030,1,bw,hôpital,lune,False,1901,#000000,#FFFFFF,True,livre|hôpital|chaise|lune
7776781c-09a7-47db-b844-975caaae7858,c1f3c196-36db-452e-aceb-61b2552ca2e2,2025-09-24T16:38:02.538733,2,bw,vextor,vextor,True,1609,#000000,#FFFFFF,False,vextor|blixor|frunez|gextom
7776781c-09a7-47db-b844-975caaae7858,c1f3c196-36db-452e-aceb-61b2552ca2e2,2025-09-24T16:38:07.341782,3,bw,poisson,poisson,True,1661,#000000,#FFFFFF,True,magasin|pomme|poisson|voiture
7776781c-09a7-47db-b844-975caaae7858,c1f3c196-36db-452e-aceb-61b2552ca2e2,2025-09-24T16:38:13.587214,4,bw,soleil,soleil,True,3080,#000000,#FFFFFF,True,rivière|soleil|chien|hôpital
7776781c-09a7-47db-b844-975caaae7858,c1f3c196-36db-452e-aceb-61b2552ca2e2,2025-09-24T16:38:17.641618,5,bw,forêt,forêt,True,925,#000000,#FFFFFF,True,forêt|rivière|plage|porte
7776781c-09a7-47db-b844-975caaae7858,c1f3c196-36db-452e-aceb-61b2552ca2e2,2025-09-24T16:38:22.285859,6,bw,kraxon,kraxon,True,1501,#000000,#FFFFFF,False,krenov|blixor|tralux|kraxon
7776781c-09a7-47db-b844-975caaae7858,c1f3c196-36db-452e-aceb-61b2552ca2e2,2025-09-24T16:38:26.667979,7,bw,floxen,flumig,False,1249,#000000,#FFFFFF,False,flumig|floxen|blixor|frunez
7776781c-09a7-47db-b844-975caaae7858,c1f3c196-36db-452e-aceb-61b2552ca2e2,2025-09-24T16:38:30.924122,8,bw,blefox,blefox,True,1109,#000000,#FFFFFF,False,kraxon|blixor|braxon|blefox
7776781c-09a7-47db-b844-975caaae7858,c1f3c196-36db-452e-aceb-61b2552ca2e2,2025-09-24T16:38:36.174518,9,bw,table,oiseau,False,2103,#000000,#FFFFFF,True,oiseau|table|arbre|école
7776781c-09a7-47db-b844-975caaae7858,c1f3c196-36db-452e-aceb-61b2552ca2e2,2025-09-24T16:38:40.436320,10,bw,krenov,frunez,False,1102,#000000,#FFFFFF,False,braxon|frunez|krimol|krenov
7776781c-09a7-47db-b844-975caaae7858,c1f3c196-36db-452e-aceb-61b2552ca2e2,2025-09-24T16:38:46.124957,1,color,zephiq,vraliq,False,779,#FF6600,#FFFFFF,False,vraliq|prixel|vokrim|zephiq
7776781c-09a7-47db-b844-975caaae7858,c1f3c196-36db-452e-aceb-61b2552ca2e2,2025-09-24T16:38:49.746162,2,color,drixel,blixor,False,464,#8B00FF,#FFFFFF,False,prixel|blixor|frunez|drixel
7776781c-09a7-47db-b844-975caaae7858,c1f3c196-36db-452e-aceb-61b2552ca2e2,2025-09-24T16:38:53.349770,3,color,drixel,frunez,False,445,#FF6600,#FFFFFF,False,drixel|blixor|frunez|prixel
7776781c-09a7-47db-b844-975caaae7858,c1f3c196-36db-452e-aceb-61b2552ca2e2,2025-09-24T16:38:57.165889,4,color,maison,jardin,False,406,#0000FF,#FFFFFF,True,magasin|jardin|poisson|maison
7776781c-09a7-47db-b844-975caaae7858,c1f3c196-36db-452e-aceb-61b2552ca2e2,2025-09-24T16:39:00.884077,5,color,fenêtre,forêt,False,519,#0000FF,#FFFFFF,True,rivière|voiture|fenêtre|forêt
7776781c-09a7-47db-b844-975caaae7858,c1f3c196-36db-452e-aceb-61b2552ca2e2,2025-09-24T16:39:04.567334,6,color,montagne,montagne,True,560,#8B00FF,#FFFFFF,True,montagne|forêt|maison|lune
7776781c-09a7-47db-b844-975caaae7858,c1f3c196-36db-452e-aceb-61b2552ca2e2,2025-09-24T16:39:08.988344,7,color,rivière,rivière,True,1276,#8B00FF,#FFFFFF,True,voiture|rivière|forêt|fenêtre
7776781c-09a7-47db-b844-975caaae7858,c1f3c196-36db-452e-aceb-61b2552ca2e2,2025-09-24T16:39:13.167676,8,color,krimol,krenov,False,1025,#FF0000,#FFFFFF,False,krenov|krimol|braxon|blixor
7776781c-09a7-47db-b844-975caaae7858,c1f3c196-36db-452e-aceb-61b2552ca2e2,2025-09-24T16:39:17.278076,9,color,magasin,maison,False,954,#FF0000,#FFFFFF,True,forêt|jardin|magasin|maison
7776781c-09a7-47db-b844-975caaae7858,c1f3c196-36db-452e-aceb-61b2552ca2e2,2025-09-24T16:39:20.740049,10,color,lune,lune,True,322,#FF6600,#FFFFFF,True,montagne|table|lune|forêt
7776781c-09a7-47db-b844-975caaae7858,c1f3c196-36db-452e-aceb-61b2552ca2e2,2025-09-24T16:39:26.568846,1,colored_bg,porte,porte,True,1166,#8B00FF,#44FF44,True,pomme|forêt|plage|porte
7776781c-09a7-47db-b844-975caaae7858,c1f3c196-36db-452e-aceb-61b2552ca2e2,2025-09-24T16:39:31.152353,2,colored_bg,école,école,True,1456,#00C800,#FF4444,True,table|poisson|forêt|école
7776781c-09a7-47db-b844-975caaae7858,c1f3c196-36db-452e-aceb-61b2552ca2e2,2025-09-24T16:39:35.739540,3,colored_bg,rivière,rivière,True,1441,#FF0000,#FF44FF,True,voiture|forêt|fenêtre|rivière
7776781c-09a7-47db-b844-975caaae7858,c1f3c196-36db-452e-aceb-61b2552ca2e2,2025-09-24T16:39:40.138867,4,colored_bg,krimol,krimol,True,1245,#FF0000,#FF8800,False,blixor|braxon|krimol|krenov
7776781c-09a7-47db-b844-975caaae7858,c1f3c196-36db-452e-aceb-61b2552ca2e2,2025-09-24T16:39:44.783097,5,colored_bg,chat,forêt,False,1485,#00C800,#FF44FF,True,fenêtre|forêt|chien|chat
7776781c-09a7-47db-b844-975caaae7858,c1f3c196-36db-452e-aceb-61b2552ca2e2,2025-09-24T16:39:49.381044,6,colored_bg,gextom,gextom,True,1439,#0000FF,#44FFFF,False,blixor|gextom|kraxon|vextor
7776781c-09a7-47db-b844-975caaae7858,c1f3c196-36db-452e-aceb-61b2552ca2e2,2025-09-24T16:39:53.520723,7,colored_bg,magasin,maison,False,981,#0000FF,#FF4444,True,maison|jardin|poisson|magasin
7776781c-09a7-47db-b844-975caaae7858,c1f3c196-36db-452e-aceb-61b2552ca2e2,2025-09-24T16:39:57.718376,8,colored_bg,magasin,magasin,True,1043,#FF6600,#44FFFF,True,maison|jardin|magasin|poisson
7776781c-09a7-47db-b844-975caaae7858,c1f3c196-36db-452e-aceb-61b2552ca2e2,2025-09-24T16:40:01.631125,9,colored_bg,rivière,fenêtre,False,762,#00C800,#4444FF,True,forêt|fenêtre|voiture|rivière
7776781c-09a7-47db-b844-975caaae7858,c1f3c196-36db-452e-aceb-61b2552ca2e2,2025-09-24T16:40:05.780065,10,colored_bg,pomme,pomme,True,996,#FF0000,#44FFFF,True,forêt|porte|pomme|plage
7776781c-09a7-47db-b844-975caaae7858,c1f3c196-36db-452e-aceb-61b2552ca2e2,2025-09-24T16:40:08.864918,1,bw,hôpital,lune,false,1901,#000000,#FFFFFF,true,livre|hôpital|chaise|lune
7776781c-09a7-47db-b844-975caaae7858,c1f3c196-36db-452e-aceb-61b2552ca2e2,2025-09-24T16:40:08.904492,2,bw,vextor,vextor,true,1609,#000000,#FFFFFF,false,vextor|blixor|frunez|gextom
7776781c-09a7-47db-b844-975caaae7858,c1f3c196-36db-452e-aceb-61b2552ca2e2,2025-09-24T16:40:08.945735,3,bw,poisson,poisson,true,1661,#000000,#FFFFFF,true,magasin|pomme|poisson|voiture
7776781c-09a7-47db-b844-975caaae7858,c1f3c196-36db-452e-aceb-61b2552ca2e2,2025-09-24T16:40:08.978835,4,bw,soleil,soleil,true,3080,#000000,#FFFFFF,true,rivière|soleil|chien|hôpital
7776781c-09a7-47db-b844-975caaae7858,c1f3c196-36db-452e-aceb-61b2552ca2e2,2025-09-24T16:40:09.016942,5,bw,forêt,forêt,true,925,#000000,#FFFFFF,true,forêt|rivière|plage|porte
7776781c-09a7-47db-b844-975caaae7858,c1f3c196-36db-452e-aceb-61b2552ca2e2,2025-09-24T16:40:09.050169,6,bw,kraxon,kraxon,true,1501,#000000,#FFFFFF,false,krenov|blixor|tralux|kraxon
7776781c-09a7-47db-b844-975caaae7858,c1f3c196-36db-452e-aceb-61b2552ca2e2,2025-09-24T16:40:09.087598,7,bw,floxen,flumig,false,1249,#000000,#FFFFFF,false,flumig|floxen|blixor|frunez
7776781c-09a7-47db-b844-975caaae7858,c1f3c196-36db-452e-aceb-61b2552ca2e2,2025-09-24T16:40:09.124820,8,bw,blefox,blefox,true,1109,#000000,#FFFFFF,false,kraxon|blixor|braxon|blefox
7776781c-09a7-47db-b844-975caaae7858,c1f3c196-36db-452e-aceb-61b2552ca2e2,2025-09-24T16:40:09.161470,9,bw,table,oiseau,false,2103,#000000,#FFFFFF,true,oiseau|table|arbre|école
7776781c-09a7-47db-b844-975caaae7858,c1f3c196-36db-452e-aceb-61b2552ca2e2,2025-09-24T16:40:09.197792,10,bw,krenov,frunez,false,1102,#000000,#FFFFFF,false,braxon|frunez|krimol|krenov
7776781c-09a7-47db-b844-975caaae7858,c1f3c196-36db-452e-aceb-61b2552ca2e2,2025-09-24T16:40:09.230547,1,color,zephiq,vraliq,false,779,#FF6600,#FFFFFF,false,vraliq|prixel|vokrim|zephiq
7776781c-09a7-47db-b844-975caaae7858,c1f3c196-36db-452e-aceb-61b2552ca2e2,2025-09-24T16:40:09.262833,2,color,drixel,blixor,false,464,#8B00FF,#FFFFFF,false,prixel|blixor|frunez|drixel
7776781c-09a7-47db-b844-975caaae7858,c1f3c196-36db-452e-aceb-61b2552ca2e2,2025-09-24T16:40:09.296222,3,color,drixel,frunez,false,445,#FF6600,#FFFFFF,false,drixel|blixor|frunez|prixel
7776781c-09a7-47db-b844-975caaae7858,c1f3c196-36db-452e-aceb-61b2552ca2e2,2025-09-24T16:40:09.330334,4,color,maison,jardin,false,406,#0000FF,#FFFFFF,true,magasin|jardin|poisson|maison
7776781c-09a7-47db-b844-975caaae7858,c1f3c196-36db-452e-aceb-61b2552ca2e2,2025-09-24T16:40:09.367616,5,color,fenêtre,forêt,false,519,#0000FF,#FFFFFF,true,rivière|voiture|fenêtre|forêt
7776781c-09a7-47db-b844-975caaae7858,c1f3c196-36db-452e-aceb-61b2552ca2e2,2025-09-24T16:40:09.401803,6,color,montagne,montagne,true,560,#8B00FF,#FFFFFF,true,montagne|forêt|maison|lune
7776781c-09a7-47db-b844-975caaae7858,c1f3c196-36db-452e-aceb-61b2552ca2e2,2025-09-24T16:40:09.439051,7,color,rivière,rivière,true,1276,#8B00FF,#FFFFFF,true,voiture|rivière|forêt|fenêtre
7776781c-09a7-47db-b844-975caaae7858,c1f3c196-36db-452e-aceb-61b2552ca2e2,2025-09-24T16:40:09.486086,8,color,krimol,krenov,false,1025,#FF0000,#FFFFFF,false,krenov|krimol|braxon|blixor
7776781c-09a7-47db-b844-975caaae7858,c1f3c196-36db-452e-aceb-61b2552ca2e2,2025-09-24T16:40:09.519230,9,color,magasin,maison,false,954,#FF0000,#FFFFFF,true,forêt|jardin|magasin|maison
7776781c-09a7-47db-b844-975caaae7858,c1f3c196-36db-452e-aceb-61b2552ca2e2,2025-09-24T16:40:09.553927,10,color,lune,lune,true,322,#FF6600,#FFFFFF,true,montagne|table|lune|forêt
7776781c-09a7-47db-b844-975caaae7858,c1f3c196-36db-452e-aceb-61b2552ca2e2,2025-09-24T16:40:09.590260,1,colored_bg,porte,porte,true,1166,#8B00FF,#44FF44,true,pomme|forêt|plage|porte
7776781c-09a7-47db-b844-975caaae7858,c1f3c196-36db-452e-aceb-61b2552ca2e2,2025-09-24T16:40:09.629741,2,colored_bg,école,école,true,1456,#00C800,#FF4444,true,table|poisson|forêt|école
7776781c-09a7-47db-b844-975caaae7858,c1f3c196-36db-452e-aceb-61b2552ca2e2,2025-09-24T16:40:09.666436,3,colored_bg,rivière,rivière,true,1441,#FF0000,#FF44FF,true,voiture|forêt|fenêtre|rivière
7776781c-09a7-47db-b844-975caaae7858,c1f3c196-36db-452e-aceb-61b2552ca2e2,2025-09-24T16:40:09.703614,4,colored_bg,krimol,krimol,true,1245,#FF0000,#FF8800,false,blixor|braxon|krimol|krenov
7776781c-09a7-47db-b844-975caaae7858,c1f3c196-36db-452e-aceb-61b2552ca2e2,2025-09-24T16:40:09.738717,5,colored_bg,chat,forêt,false,1485,#00C800,#FF44FF,true,fenêtre|forêt|chien|chat
7776781c-09a7-47db-b844-975caaae7858,c1f3c196-36db-452e-aceb-61b2552ca2e2,2025-09-24T16:40:09.777386,6,colored_bg,gextom,gextom,true,1439,#0000FF,#44FFFF,false,blixor|gextom|kraxon|vextor
7776781c-09a7-47db-b844-975caaae7858,c1f3c196-36db-452e-aceb-61b2552ca2e2,2025-09-24T16:40:09.814991,7,colored_bg,magasin,maison,false,981,#0000FF,#FF4444,true,maison|jardin|poisson|magasin
7776781c-09a7-47db-b844-975caaae7858,c1f3c196-36db-452e-aceb-61b2552ca2e2,2025-09-24T16:40:09.852121,8,colored_bg,magasin,magasin,true,1043,#FF6600,#44FFFF,true,maison|jardin|magasin|poisson
7776781c-09a7-47db-b844-975caaae7858,c1f3c196-36db-452e-aceb-61b2552ca2e2,2025-09-24T16:40:09.889828,9,colored_bg,rivière,fenêtre,false,762,#00C800,#4444FF,true,forêt|fenêtre|voiture|rivière
7776781c-09a7-47db-b844-975caaae7858,c1f3c196-36db-452e-aceb-61b2552ca2e2,2025-09-24T16:40:09.931711,10,colored_bg,pomme,pomme,true,996,#FF0000,#44FFFF,true,forêt|porte|pomme|plage
16ef25cb-97a8-4b7b-91c1-b72d754bfd80,5f828eea-3b66-46e3-ba47-68b132d1144c,2025-09-24T18:55:12.827104,1,bw,tralux,tralux,True,1639,#000000,#FFFFFF,False,tralux|braxon|tronez|krenov
16ef25cb-97a8-4b7b-91c1-b72d754bfd80,5f828eea-3b66-46e3-ba47-68b132d1144c,2025-09-24T18:55:17.465704,2,bw,blixor,blixor,True,1490,#000000,#FFFFFF,False,prixel|braxon|blixor|blefox
16ef25cb-97a8-4b7b-91c1-b72d754bfd80,5f828eea-3b66-46e3-ba47-68b132d1144c,2025-09-24T18:55:22.105985,3,bw,soleil,soleil,True,1479,#000000,#FFFFFF,True,maison|soleil|école|livre
16ef25cb-97a8-4b7b-91c1-b72d754bfd80,5f828eea-3b66-46e3-ba47-68b132d1144c,2025-09-24T18:55:26.800594,4,bw,gextom,gextom,True,1533,#000000,#FFFFFF,False,vextor|gextom|prixel|drixel
16ef25cb-97a8-4b7b-91c1-b72d754bfd80,5f828eea-3b66-46e3-ba47-68b132d1144c,2025-09-24T18:55:32.053628,5,bw,tronez,tronez,True,1982,#000000,#FFFFFF,False,tronez|glopek|frunez|tralux
16ef25cb-97a8-4b7b-91c1-b72d754bfd80,5f828eea-3b66-46e3-ba47-68b132d1144c,2025-09-24T18:55:36.648760,6,bw,livre,livre,True,1268,#000000,#FFFFFF,True,arbre|voiture|forêt|livre
16ef25cb-97a8-4b7b-91c1-b72d754bfd80,5f828eea-3b66-46e3-ba47-68b132d1144c,2025-09-24T18:55:41.233644,7,bw,magasin,magasin,True,1416,#000000,#FFFFFF,True,maison|jardin|magasin|poisson
16ef25cb-97a8-4b7b-91c1-b72d754bfd80,5f828eea-3b66-46e3-ba47-68b132d1144c,2025-09-24T18:55:45.853696,8,bw,prixel,prixel,True,1454,#000000,#FFFFFF,False,frunez|drixel|blixor|prixel
16ef25cb-97a8-4b7b-91c1-b72d754bfd80,5f828eea-3b66-46e3-ba47-68b132d1144c,2025-09-24T18:55:50.557250,9,bw,poisson,poisson,True,1523,#000000,#FFFFFF,True,pomme|magasin|maison|poisson
16ef25cb-97a8-4b7b-91c1-b72d754bfd80,5f828eea-3b66-46e3-ba47-68b132d1144c,2025-09-24T18:55:55.019268,10,bw,école,école,True,1298,#000000,#FFFFFF,True,table|voiture|maison|école
16ef25cb-97a8-4b7b-91c1-b72d754bfd80,5f828eea-3b66-46e3-ba47-68b132d1144c,2025-09-24T18:56:05.936402,1,color,krenov,krenov,True,1646,#FF0000,#FFFFFF,False,krimol|krenov|braxon|frunez
16ef25cb-97a8-4b7b-91c1-b72d754bfd80,5f828eea-3b66-46e3-ba47-68b132d1144c,2025-09-24T18:56:10.132247,2,color,maison,maison,True,1040,#8B00FF,#FFFFFF,True,forêt|magasin|jardin|maison
16ef25cb-97a8-4b7b-91c1-b72d754bfd80,5f828eea-3b66-46e3-ba47-68b132d1144c,2025-09-24T18:56:14.957293,3,color,tronez,tronez,True,1665,#00C800,#FFFFFF,False,tronez|tralux|glopek|frunez
16ef25cb-97a8-4b7b-91c1-b72d754bfd80,5f828eea-3b66-46e3-ba47-68b132d1144c,2025-09-24T18:56:19.622043,4,color,école,école,True,1496,#8B00FF,#FFFFFF,True,école|soleil|forêt|table
16ef25cb-97a8-4b7b-91c1-b72d754bfd80,5f828eea-3b66-46e3-ba47-68b132d1144c,2025-09-24T18:56:24.258335,5,color,blixor,blixor,True,1480,#FF0000,#FFFFFF,False,braxon|blixor|vextor|prixel
16ef25cb-97a8-4b7b-91c1-b72d754bfd80,5f828eea-3b66-46e3-ba47-68b132d1144c,2025-09-24T18:56:29.075415,6,color,vraliq,vraliq,True,1442,#0000FF,#FFFFFF,False,vraliq|tralux|zephiq|vokrim
16ef25cb-97a8-4b7b-91c1-b72d754bfd80,5f828eea-3b66-46e3-ba47-68b132d1144c,2025-09-24T18:56:34.222479,7,color,poisson,poisson,True,1704,#FF0000,#FFFFFF,True,voiture|pomme|magasin|poisson
16ef25cb-97a8-4b7b-91c1-b72d754bfd80,5f828eea-3b66-46e3-ba47-68b132d1144c,2025-09-24T18:56:38.556164,8,color,braxon,braxon,True,1170,#FF0000,#FFFFFF,False,braxon|blixor|tralux|kraxon
16ef25cb-97a8-4b7b-91c1-b72d754bfd80,5f828eea-3b66-46e3-ba47-68b132d1144c,2025-09-24T18:56:43.238780,9,color,vraliq,vraliq,True,1521,#8B00FF,#FFFFFF,False,zephiq|vraliq|vokrim|tralux
16ef25cb-97a8-4b7b-91c1-b72d754bfd80,5f828eea-3b66-46e3-ba47-68b132d1144c,2025-09-24T18:56:47.743991,10,color,arbre,arbre,True,1354,#8B00FF,#FFFFFF,True,forêt|table|livre|arbre
16ef25cb-97a8-4b7b-91c1-b72d754bfd80,5f828eea-3b66-46e3-ba47-68b132d1144c,2025-09-24T18:57:02.929610,1,colored_bg,krimol,krimol,True,2380,#FF0000,#8844FF,False,krimol|braxon|krenov|blixor
16ef25cb-97a8-4b7b-91c1-b72d754bfd80,5f828eea-3b66-46e3-ba47-68b132d1144c,2025-09-24T18:57:07.617566,2,colored_bg,kraxon,kraxon,True,1530,#00C800,#FF4444,False,krenov|tralux|blixor|kraxon
16ef25cb-97a8-4b7b-91c1-b72d754bfd80,5f828eea-3b66-46e3-ba47-68b132d1144c,2025-09-24T18:57:12.244643,3,colored_bg,hôpital,hôpital,True,1457,#00C800,#FF44FF,True,hôpital|porte|lune|forêt
16ef25cb-97a8-4b7b-91c1-b72d754bfd80,5f828eea-3b66-46e3-ba47-68b132d1144c,2025-09-24T18:57:16.435024,4,colored_bg,blefox,blefox,True,1012,#00C800,#4444FF,False,braxon|blefox|blixor|kraxon
16ef25cb-97a8-4b7b-91c1-b72d754bfd80,5f828eea-3b66-46e3-ba47-68b132d1144c,2025-09-24T18:57:20.796023,5,colored_bg,montagne,montagne,True,1184,#FF0000,#FF8800,True,montagne|forêt|lune|porte
16ef25cb-97a8-4b7b-91c1-b72d754bfd80,5f828eea-3b66-46e3-ba47-68b132d1144c,2025-09-24T18:57:25.247067,6,colored_bg,fleur,fleur,True,1275,#8B00FF,#44FFFF,True,fenêtre|forêt|fleur|oiseau
16ef25cb-97a8-4b7b-91c1-b72d754bfd80,5f828eea-3b66-46e3-ba47-68b132d1144c,2025-09-24T18:57:29.526424,7,colored_bg,soleil,soleil,True,1107,#8B00FF,#FF8800,True,magasin|arbre|forêt|soleil
16ef25cb-97a8-4b7b-91c1-b72d754bfd80,5f828eea-3b66-46e3-ba47-68b132d1144c,2025-09-24T18:57:34.105446,8,colored_bg,fenêtre,fenêtre,True,1406,#00C800,#44FFFF,True,rivière|voiture|forêt|fenêtre
16ef25cb-97a8-4b7b-91c1-b72d754bfd80,5f828eea-3b66-46e3-ba47-68b132d1144c,2025-09-24T18:57:38.872003,9,colored_bg,arbre,arbre,True,1607,#FF0000,#FF8800,True,livre|arbre|voiture|forêt
16ef25cb-97a8-4b7b-91c1-b72d754bfd80,5f828eea-3b66-46e3-ba47-68b132d1144c,2025-09-24T18:57:43.400149,10,colored_bg,zephiq,zephiq,True,1372,#00C800,#4444FF,False,braxon|zephiq|flumig|vraliq
16ef25cb-97a8-4b7b-91c1-b72d754bfd80,5f828eea-3b66-46e3-ba47-68b132d1144c,2025-09-24T18:57:58.254699,1,bw,tralux,tralux,true,1639,#000000,#FFFFFF,false,tralux|braxon|tronez|krenov
16ef25cb-97a8-4b7b-91c1-b72d754bfd80,5f828eea-3b66-46e3-ba47-68b132d1144c,2025-09-24T18:57:58.302767,2,bw,blixor,blixor,true,1490,#000000,#FFFFFF,false,prixel|braxon|blixor|blefox
16ef25cb-97a8-4b7b-91c1-b72d754bfd80,5f828eea-3b66-46e3-ba47-68b132d1144c,2025-09-24T18:57:58.344605,3,bw,soleil,soleil,true,1479,#000000,#FFFFFF,true,maison|soleil|école|livre
16ef25cb-97a8-4b7b-91c1-b72d754bfd80,5f828eea-3b66-46e3-ba47-68b132d1144c,2025-09-24T18:57:58.391906,4,bw,gextom,gextom,true,1533,#000000,#FFFFFF,false,vextor|gextom|prixel|drixel
16ef25cb-97a8-4b7b-91c1-b72d754bfd80,5f828eea-3b66-46e3-ba47-68b132d1144c,2025-09-24T18:57:58.435450,5,bw,tronez,tronez,true,1982,#000000,#FFFFFF,false,tronez|glopek|frunez|tralux
16ef25cb-97a8-4b7b-91c1-b72d754bfd80,5f828eea-3b66-46e3-ba47-68b132d1144c,2025-09-24T18:57:58.475762,6,bw,livre,livre,true,1268,#000000,#FFFFFF,true,arbre|voiture|forêt|livre
16ef25cb-97a8-4b7b-91c1-b72d754bfd80,5f828eea-3b66-46e3-ba47-68b132d1144c,2025-09-24T18:57:58.513882,7,bw,magasin,magasin,true,1416,#000000,#FFFFFF,true,maison|jardin|magasin|poisson
16ef25cb-97a8-4b7b-91c1-b72d754bfd80,5f828eea-3b66-46e3-ba47-68b132d1144c,2025-09-24T18:57:58.557716,8,bw,prixel,prixel,true,1454,#000000,#FFFFFF,false,frunez|drixel|blixor|prixel
16ef25cb-97a8-4b7b-91c1-b72d754bfd80,5f828eea-3b66-46e3-ba47-68b132d1144c,2025-09-24T18:57:58.601690,9,bw,poisson,poisson,true,1523,#000000,#FFFFFF,true,pomme|magasin|maison|poisson
16ef25cb-97a8-4b7b-91c1-b72d754bfd80,5f828eea-3b66-46e3-ba47-68b132d1144c,2025-09-24T18:57:58.647488,10,bw,école,école,true,1298,#000000,#FFFFFF,true,table|voiture|maison|école
16ef25cb-97a8-4b7b-91c1-b72d754bfd80,5f828eea-3b66-46e3-ba47-68b132d1144c,2025-09-24T18:57:58.690708,1,color,krenov,krenov,true,1646,#FF0000,#FFFFFF,false,krimol|krenov|braxon|frunez
16ef25cb-97a8-4b7b-91c1-b72d754bfd80,5f828eea-3b66-46e3-ba47-68b132d1144c,2025-09-24T18:57:58.740308,2,color,maison,maison,true,1040,#8B00FF,#FFFFFF,true,forêt|magasin|jardin|maison
16ef25cb-97a8-4b7b-91c1-b72d754bfd80,5f828eea-3b66-46e3-ba47-68b132d1144c,2025-09-24T18:57:58.782734,3,color,tronez,tronez,true,1665,#00C800,#FFFFFF,false,tronez|tralux|glopek|frunez
16ef25cb-97a8-4b7b-91c1-b72d754bfd80,5f828eea-3b66-46e3-ba47-68b132d1144c,2025-09-24T18:57:58.821924,4,color,école,école,true,1496,#8B00FF,#FFFFFF,true,école|soleil|forêt|table
16ef25cb-97a8-4b7b-91c1-b72d754bfd80,5f828eea-3b66-46e3-ba47-68b132d1144c,2025-09-24T18:57:58.861014,5,color,blixor,blixor,true,1480,#FF0000,#FFFFFF,false,braxon|blixor|vextor|prixel
16ef25cb-97a8-4b7b-91c1-b72d754bfd80,5f828eea-3b66-46e3-ba47-68b132d1144c,2025-09-24T18:57:58.899317,6,color,vraliq,vraliq,true,1442,#0000FF,#FFFFFF,false,vraliq|tralux|zephiq|vokrim
16ef25cb-97a8-4b7b-91c1-b72d754bfd80,5f828eea-3b66-46e3-ba47-68b132d1144c,2025-09-24T18:57:58.941049,7,color,poisson,poisson,true,1704,#FF0000,#FFFFFF,true,voiture|pomme|magasin|poisson
16ef25cb-97a8-4b7b-91c1-b72d754bfd80,5f828eea-3b66-46e3-ba47-68b132d1144c,2025-09-24T18:57:58.978477,8,color,braxon,braxon,true,1170,#FF0000,#FFFFFF,false,braxon|blixor|tralux|kraxon
16ef25cb-97a8-4b7b-91c1-b72d754bfd80,5f828eea-3b66-46e3-ba47-68b132d1144c,2025-09-24T18:57:59.022840,9,color,vraliq,vraliq,true,1521,#8B00FF,#FFFFFF,false,zephiq|vraliq|vokrim|tralux
16ef25cb-97a8-4b7b-91c1-b72d754bfd80,5f828eea-3b66-46e3-ba47-68b132d1144c,2025-09-24T18:57:59.064784,10,color,arbre,arbre,true,1354,#8B00FF,#FFFFFF,true,forêt|table|livre|arbre
16ef25cb-97a8-4b7b-91c1-b72d754bfd80,5f828eea-3b66-46e3-ba47-68b132d1144c,2025-09-24T18:57:59.108539,1,colored_bg,krimol,krimol,true,2380,#FF0000,#8844FF,false,krimol|braxon|krenov|blixor
16ef25cb-97a8-4b7b-91c1-b72d754bfd80,5f828eea-3b66-46e3-ba47-68b132d1144c,2025-09-24T18:57:59.153562,2,colored_bg,kraxon,kraxon,true,1530,#00C800,#FF4444,false,krenov|tralux|blixor|kraxon
16ef25cb-97a8-4b7b-91c1-b72d754bfd80,5f828eea-3b66-46e3-ba47-68b132d1144c,2025-09-24T18:57:59.192149,3,colored_bg,hôpital,hôpital,true,1457,#00C800,#FF44FF,true,hôpital|porte|lune|forêt
16ef25cb-97a8-4b7b-91c1-b72d754bfd80,5f828eea-3b66-46e3-ba47-68b132d1144c,2025-09-24T18:57:59.234732,4,colored_bg,blefox,blefox,true,1012,#00C800,#4444FF,false,braxon|blefox|blixor|kraxon
16ef25cb-97a8-4b7b-91c1-b72d754bfd80,5f828eea-3b66-46e3-ba47-68b132d1144c,2025-09-24T18:57:59.277542,5,colored_bg,montagne,montagne,true,1184,#FF0000,#FF8800,true,montagne|forêt|lune|porte
16ef25cb-97a8-4b7b-91c1-b72d754bfd80,5f828eea-3b66-46e3-ba47-68b132d1144c,2025-09-24T18:57:59.331050,6,colored_bg,fleur,fleur,true,1275,#8B00FF,#44FFFF,true,fenêtre|forêt|fleur|oiseau
16ef25cb-97a8-4b7b-91c1-b72d754bfd80,5f828eea-3b66-46e3-ba47-68b132d1144c,2025-09-24T18:57:59.375209,7,colored_bg,soleil,soleil,true,1107,#8B00FF,#FF8800,true,magasin|arbre|forêt|soleil
16ef25cb-97a8-4b7b-91c1-b72d754bfd80,5f828eea-3b66-46e3-ba47-68b132d1144c,2025-09-24T18:57:59.414720,8,colored_bg,fenêtre,fenêtre,true,1406,#00C800,#44FFFF,true,rivière|voiture|forêt|fenêtre
16ef25cb-97a8-4b7b-91c1-b72d754bfd80,5f828eea-3b66-46e3-ba47-68b132d1144c,2025-09-24T18:57:59.457396,9,colored_bg,arbre,arbre,true,1607,#FF0000,#FF8800,true,livre|arbre|voiture|forêt
16ef25cb-97a8-4b7b-91c1-b72d754bfd80,5f828eea-3b66-46e3-ba47-68b132d1144c,2025-09-24T18:57:59.498224,10,colored_bg,zephiq,zephiq,true,1372,#00C800,#4444FF,false,braxon|zephiq|flumig|vraliq
ea23bd08-9ad4-44b5-a036-e64934f5e54d,045a3dc7-c0db-4322-8ebc-5b1fc81bd034,2025-09-25T18:31:32.538303,1,bw,krenov,krimol,False,32111,#000000,#FFFFFF,False,braxon|krimol|frunez|krenov
ea23bd08-9ad4-44b5-a036-e64934f5e54d,045a3dc7-c0db-4322-8ebc-5b1fc81bd034,2025-09-25T18:31:37.165648,2,bw,tralux,tralux,True,1233,#000000,#FFFFFF,False,krimol|tronez|tralux|braxon
ea23bd08-9ad4-44b5-a036-e64934f5e54d,045a3dc7-c0db-4322-8ebc-5b1fc81bd034,2025-09-25T18:31:41.826307,3,bw,blefox,blefox,True,1236,#000000,#FFFFFF,False,zephiq|blixor|braxon|blefox
ea23bd08-9ad4-44b5-a036-e64934f5e54d,045a3dc7-c0db-4322-8ebc-5b1fc81bd034,2025-09-25T18:31:46.260238,4,bw,blixor,blixor,True,1037,#000000,#FFFFFF,False,blefox|prixel|blixor|vextor
ea23bd08-9ad4-44b5-a036-e64934f5e54d,045a3dc7-c0db-4322-8ebc-5b1fc81bd034,2025-09-25T18:31:50.995775,5,bw,magasin,magasin,True,1298,#000000,#FFFFFF,True,maison|magasin|jardin|poisson
ea23bd08-9ad4-44b5-a036-e64934f5e54d,045a3dc7-c0db-4322-8ebc-5b1fc81bd034,2025-09-25T18:31:55.173482,6,bw,maison,maison,True,975,#000000,#FFFFFF,True,poisson|magasin|maison|jardin
ea23bd08-9ad4-44b5-a036-e64934f5e54d,045a3dc7-c0db-4322-8ebc-5b1fc81bd034,2025-09-25T18:31:59.826125,7,bw,prixel,prixel,True,1327,#000000,#FFFFFF,False,drixel|frunez|prixel|blixor
ea23bd08-9ad4-44b5-a036-e64934f5e54d,045a3dc7-c0db-4322-8ebc-5b1fc81bd034,2025-09-25T18:32:04.556118,8,bw,blomek,blomek,True,1418,#000000,#FFFFFF,False,glopek|blomek|blixor|vextor
ea23bd08-9ad4-44b5-a036-e64934f5e54d,045a3dc7-c0db-4322-8ebc-5b1fc81bd034,2025-09-25T18:32:09.425903,9,bw,table,table,True,1507,#000000,#FFFFFF,True,chien|table|arbre|école
3e1c54fb-37a5-4c01-b712-b7fc50c2fd0c,190f18ba-dab4-4922-9cc7-4dd41a7f14fd,2025-09-30T14:52:32.416793,1,bw,krimol,krimol,True,2304,#000000,#FFFFFF,False,krimol|blixor|braxon|krenov
3e1c54fb-37a5-4c01-b712-b7fc50c2fd0c,190f18ba-dab4-4922-9cc7-4dd41a7f14fd,2025-09-30T14:52:37.019957,2,bw,tralux,tralux,True,1184,#000000,#FFFFFF,False,kraxon|braxon|tralux|tronez
3e1c54fb-37a5-4c01-b712-b7fc50c2fd0c,190f18ba-dab4-4922-9cc7-4dd41a7f14fd,2025-09-30T14:52:40.983777,3,bw,pomme,pomme,True,822,#000000,#FFFFFF,True,porte|plage|pomme|poisson
3e1c54fb-37a5-4c01-b712-b7fc50c2fd0c,190f18ba-dab4-4922-9cc7-4dd41a7f14fd,2025-09-30T14:52:45.159543,4,bw,vraliq,vraliq,True,1043,#000000,#FFFFFF,False,vraliq|vokrim|tralux|zephiq
3e1c54fb-37a5-4c01-b712-b7fc50c2fd0c,190f18ba-dab4-4922-9cc7-4dd41a7f14fd,2025-09-30T14:52:49.857244,5,bw,fleur,fleur,True,1566,#000000,#FFFFFF,True,fleur|rivière|lune|arbre
3e1c54fb-37a5-4c01-b712-b7fc50c2fd0c,190f18ba-dab4-4922-9cc7-4dd41a7f14fd,2025-09-30T14:52:53.823310,6,bw,chien,chien,True,815,#000000,#FFFFFF,True,hôpital|montagne|chien|chat
3e1c54fb-37a5-4c01-b712-b7fc50c2fd0c,190f18ba-dab4-4922-9cc7-4dd41a7f14fd,2025-09-30T14:52:58.088594,7,bw,porte,porte,True,1104,#000000,#FFFFFF,True,rivière|plage|pomme|porte
3e1c54fb-37a5-4c01-b712-b7fc50c2fd0c,190f18ba-dab4-4922-9cc7-4dd41a7f14fd,2025-09-30T14:53:02.293863,8,bw,hôpital,hôpital,True,1052,#000000,#FFFFFF,True,hôpital|plage|pomme|rivière
3e1c54fb-37a5-4c01-b712-b7fc50c2fd0c,190f18ba-dab4-4922-9cc7-4dd41a7f14fd,2025-09-30T14:53:06.313343,9,bw,krenov,krenov,True,862,#000000,#FFFFFF,False,braxon|frunez|krenov|krimol
3e1c54fb-37a5-4c01-b712-b7fc50c2fd0c,190f18ba-dab4-4922-9cc7-4dd41a7f14fd,2025-09-30T14:53:10.337773,10,bw,blomek,blomek,True,872,#000000,#FFFFFF,False,blixor|pluvex|blomek|glopek
3e1c54fb-37a5-4c01-b712-b7fc50c2fd0c,190f18ba-dab4-4922-9cc7-4dd41a7f14fd,2025-09-30T14:53:17.191338,1,color,arbre,arbre,True,1585,#FF6600,#FFFFFF,True,table|livre|arbre|forêt
3e1c54fb-37a5-4c01-b712-b7fc50c2fd0c,190f18ba-dab4-4922-9cc7-4dd41a7f14fd,2025-09-30T14:53:21.532622,2,color,porte,porte,True,1179,#FF6600,#FFFFFF,True,forêt|porte|plage|pomme
3e1c54fb-37a5-4c01-b712-b7fc50c2fd0c,190f18ba-dab4-4922-9cc7-4dd41a7f14fd,2025-09-30T14:53:25.841722,3,color,zephiq,zephiq,True,1146,#FF6600,#FFFFFF,False,drixel|zephiq|kraxon|vraliq
3e1c54fb-37a5-4c01-b712-b7fc50c2fd0c,190f18ba-dab4-4922-9cc7-4dd41a7f14fd,2025-09-30T14:53:30.335422,4,color,zephiq,zephiq,True,1345,#0000FF,#FFFFFF,False,zephiq|frunez|glopek|vraliq
3e1c54fb-37a5-4c01-b712-b7fc50c2fd0c,190f18ba-dab4-4922-9cc7-4dd41a7f14fd,2025-09-30T14:53:34.704613,5,color,chat,chat,True,1222,#00C800,#FFFFFF,True,chien|forêt|chat|école
3e1c54fb-37a5-4c01-b712-b7fc50c2fd0c,190f18ba-dab4-4922-9cc7-4dd41a7f14fd,2025-09-30T14:53:39.369246,6,color,pluvex,pluvex,True,1530,#FF0000,#FFFFFF,False,glopek|frunez|quilmex|pluvex
3e1c54fb-37a5-4c01-b712-b7fc50c2fd0c,190f18ba-dab4-4922-9cc7-4dd41a7f14fd,2025-09-30T14:53:44.803358,7,color,kraxon,kraxon,True,2300,#FF0000,#FFFFFF,False,krenov|blixor|braxon|kraxon
3e1c54fb-37a5-4c01-b712-b7fc50c2fd0c,190f18ba-dab4-4922-9cc7-4dd41a7f14fd,2025-09-30T14:53:49.112613,8,color,blixor,blixor,True,1168,#0000FF,#FFFFFF,False,braxon|blixor|prixel|vextor
3e1c54fb-37a5-4c01-b712-b7fc50c2fd0c,190f18ba-dab4-4922-9cc7-4dd41a7f14fd,2025-09-30T14:53:52.991624,9,color,table,table,True,739,#00C800,#FFFFFF,True,arbre|table|école|forêt
3e1c54fb-37a5-4c01-b712-b7fc50c2fd0c,190f18ba-dab4-4922-9cc7-4dd41a7f14fd,2025-09-30T14:53:57.029040,10,color,vextor,vextor,True,906,#FF0000,#FFFFFF,False,vextor|blomek|blixor|gextom
3e1c54fb-37a5-4c01-b712-b7fc50c2fd0c,190f18ba-dab4-4922-9cc7-4dd41a7f14fd,2025-09-30T14:54:03.842297,1,colored_bg,floxen,floxen,True,1331,#00C800,#4444FF,False,flumig|blixor|floxen|frunez
3e1c54fb-37a5-4c01-b712-b7fc50c2fd0c,190f18ba-dab4-4922-9cc7-4dd41a7f14fd,2025-09-30T14:54:08.129592,2,colored_bg,fleur,fleur,True,1147,#00C800,#8844FF,True,hôpital|forêt|fleur|fenêtre
3e1c54fb-37a5-4c01-b712-b7fc50c2fd0c,190f18ba-dab4-4922-9cc7-4dd41a7f14fd,2025-09-30T14:54:12.839662,3,colored_bg,vokrim,glumix,False,1574,#0000FF,#FF4444,False,glumix|pluvex|vokrim|vraliq
3e1c54fb-37a5-4c01-b712-b7fc50c2fd0c,190f18ba-dab4-4922-9cc7-4dd41a7f14fd,2025-09-30T14:54:17.385268,4,colored_bg,glumix,glumix,True,1409,#FF0000,#FF44FF,False,glopek|flumig|glumix|floxen
3e1c54fb-37a5-4c01-b712-b7fc50c2fd0c,190f18ba-dab4-4922-9cc7-4dd41a7f14fd,2025-09-30T14:54:21.550098,5,colored_bg,voiture,voiture,True,1024,#FF6600,#44FF44,True,poisson|voiture|livre|forêt
3e1c54fb-37a5-4c01-b712-b7fc50c2fd0c,190f18ba-dab4-4922-9cc7-4dd41a7f14fd,2025-09-30T14:54:26.042064,6,colored_bg,kraxon,kraxon,True,1348,#0000FF,#FF8800,False,kraxon|tralux|braxon|krenov
3e1c54fb-37a5-4c01-b712-b7fc50c2fd0c,190f18ba-dab4-4922-9cc7-4dd41a7f14fd,2025-09-30T14:54:31.099650,7,colored_bg,krenov,krenov,True,1916,#8B00FF,#FF8800,False,braxon|frunez|krimol|krenov
3e1c54fb-37a5-4c01-b712-b7fc50c2fd0c,190f18ba-dab4-4922-9cc7-4dd41a7f14fd,2025-09-30T14:54:35.533745,8,colored_bg,magasin,magasin,True,1301,#FF6600,#FF44FF,True,jardin|poisson|forêt|magasin
3e1c54fb-37a5-4c01-b712-b7fc50c2fd0c,190f18ba-dab4-4922-9cc7-4dd41a7f14fd,2025-09-30T14:54:40.015914,9,colored_bg,tronez,tronez,True,1346,#FF6600,#4444FF,False,tronez|glopek|tralux|frunez
3e1c54fb-37a5-4c01-b712-b7fc50c2fd0c,190f18ba-dab4-4922-9cc7-4dd41a7f14fd,2025-09-30T14:54:44.923913,10,colored_bg,tralux,tralux,True,1766,#8B00FF,#FF8800,False,braxon|tronez|tralux|vokrim
3e1c54fb-37a5-4c01-b712-b7fc50c2fd0c,190f18ba-dab4-4922-9cc7-4dd41a7f14fd,2025-09-30T14:55:04.763646,1,bw,krimol,krimol,true,2304,#000000,#FFFFFF,false,krimol|blixor|braxon|krenov
3e1c54fb-37a5-4c01-b712-b7fc50c2fd0c,190f18ba-dab4-4922-9cc7-4dd41a7f14fd,2025-09-30T14:55:04.805973,2,bw,tralux,tralux,true,1184,#000000,#FFFFFF,false,kraxon|braxon|tralux|tronez
3e1c54fb-37a5-4c01-b712-b7fc50c2fd0c,190f18ba-dab4-4922-9cc7-4dd41a7f14fd,2025-09-30T14:55:04.849641,3,bw,pomme,pomme,true,822,#000000,#FFFFFF,true,porte|plage|pomme|poisson
3e1c54fb-37a5-4c01-b712-b7fc50c2fd0c,190f18ba-dab4-4922-9cc7-4dd41a7f14fd,2025-09-30T14:55:04.900801,4,bw,vraliq,vraliq,true,1043,#000000,#FFFFFF,false,vraliq|vokrim|tralux|zephiq
3e1c54fb-37a5-4c01-b712-b7fc50c2fd0c,190f18ba-dab4-4922-9cc7-4dd41a7f14fd,2025-09-30T14:55:04.939649,5,bw,fleur,fleur,true,1566,#000000,#FFFFFF,true,fleur|rivière|lune|arbre
3e1c54fb-37a5-4c01-b712-b7fc50c2fd0c,190f18ba-dab4-4922-9cc7-4dd41a7f14fd,2025-09-30T14:55:04.988016,6,bw,chien,chien,true,815,#000000,#FFFFFF,true,hôpital|montagne|chien|chat
3e1c54fb-37a5-4c01-b712-b7fc50c2fd0c,190f18ba-dab4-4922-9cc7-4dd41a7f14fd,2025-09-30T14:55:05.027647,7,bw,porte,porte,true,1104,#000000,#FFFFFF,true,rivière|plage|pomme|porte
3e1c54fb-37a5-4c01-b712-b7fc50c2fd0c,190f18ba-dab4-4922-9cc7-4dd41a7f14fd,2025-09-30T14:55:05.081462,8,bw,hôpital,hôpital,true,1052,#000000,#FFFFFF,true,hôpital|plage|pomme|rivière
3e1c54fb-37a5-4c01-b712-b7fc50c2fd0c,190f18ba-dab4-4922-9cc7-4dd41a7f14fd,2025-09-30T14:55:05.118468,9,bw,krenov,krenov,true,862,#000000,#FFFFFF,false,braxon|frunez|krenov|krimol
3e1c54fb-37a5-4c01-b712-b7fc50c2fd0c,190f18ba-dab4-4922-9cc7-4dd41a7f14fd,2025-09-30T14:55:05.160459,10,bw,blomek,blomek,true,872,#000000,#FFFFFF,false,blixor|pluvex|blomek|glopek
3e1c54fb-37a5-4c01-b712-b7fc50c2fd0c,190f18ba-dab4-4922-9cc7-4dd41a7f14fd,2025-09-30T14:55:05.199431,1,color,arbre,arbre,true,1585,#FF6600,#FFFFFF,true,table|livre|arbre|forêt
3e1c54fb-37a5-4c01-b712-b7fc50c2fd0c,190f18ba-dab4-4922-9cc7-4dd41a7f14fd,2025-09-30T14:55:05.241227,2,color,porte,porte,true,1179,#FF6600,#FFFFFF,true,forêt|porte|plage|pomme
3e1c54fb-37a5-4c01-b712-b7fc50c2fd0c,190f18ba-dab4-4922-9cc7-4dd41a7f14fd,2025-09-30T14:55:05.284387,3,color,zephiq,zephiq,true,1146,#FF6600,#FFFFFF,false,drixel|zephiq|kraxon|vraliq
3e1c54fb-37a5-4c01-b712-b7fc50c2fd0c,190f18ba-dab4-4922-9cc7-4dd41a7f14fd,2025-09-30T14:55:05.325095,4,color,zephiq,zephiq,true,1345,#0000FF,#FFFFFF,false,zephiq|frunez|glopek|vraliq
3e1c54fb-37a5-4c01-b712-b7fc50c2fd0c,190f18ba-dab4-4922-9cc7-4dd41a7f14fd,2025-09-30T14:55:05.367594,5,color,chat,chat,true,1222,#00C800,#FFFFFF,true,chien|forêt|chat|école
3e1c54fb-37a5-4c01-b712-b7fc50c2fd0c,190f18ba-dab4-4922-9cc7-4dd41a7f14fd,2025-09-30T14:55:05.409856,6,color,pluvex,pluvex,true,1530,#FF0000,#FFFFFF,false,glopek|frunez|quilmex|pluvex
3e1c54fb-37a5-4c01-b712-b7fc50c2fd0c,190f18ba-dab4-4922-9cc7-4dd41a7f14fd,2025-09-30T14:55:05.452587,7,color,kraxon,kraxon,true,2300,#FF0000,#FFFFFF,false,krenov|blixor|braxon|kraxon
3e1c54fb-37a5-4c01-b712-b7fc50c2fd0c,190f18ba-dab4-4922-9cc7-4dd41a7f14fd,2025-09-30T14:55:05.492343,8,color,blixor,blixor,true,1168,#0000FF,#FFFFFF,false,braxon|blixor|prixel|vextor
3e1c54fb-37a5-4c01-b712-b7fc50c2fd0c,190f18ba-dab4-4922-9cc7-4dd41a7f14fd,2025-09-30T14:55:05.535134,9,color,table,table,true,739,#00C800,#FFFFFF,true,arbre|table|école|forêt
3e1c54fb-37a5-4c01-b712-b7fc50c2fd0c,190f18ba-dab4-4922-9cc7-4dd41a7f14fd,2025-09-30T14:55:05.582485,10,color,vextor,vextor,true,906,#FF0000,#FFFFFF,false,vextor|blomek|blixor|gextom
3e1c54fb-37a5-4c01-b712-b7fc50c2fd0c,190f18ba-dab4-4922-9cc7-4dd41a7f14fd,2025-09-30T14:55:05.633067,1,colored_bg,floxen,floxen,true,1331,#00C800,#4444FF,false,flumig|blixor|floxen|frunez
3e1c54fb-37a5-4c01-b712-b7fc50c2fd0c,190f18ba-dab4-4922-9cc7-4dd41a7f14fd,2025-09-30T14:55:05.683525,2,colored_bg,fleur,fleur,true,1147,#00C800,#8844FF,true,hôpital|forêt|fleur|fenêtre
3e1c54fb-37a5-4c01-b712-b7fc50c2fd0c,190f18ba-dab4-4922-9cc7-4dd41a7f14fd,2025-09-30T14:55:05.722585,3,colored_bg,vokrim,glumix,false,1574,#0000FF,#FF4444,false,glumix|pluvex|vokrim|vraliq
3e1c54fb-37a5-4c01-b712-b7fc50c2fd0c,190f18ba-dab4-4922-9cc7-4dd41a7f14fd,2025-09-30T14:55:05.767274,4,colored_bg,glumix,glumix,true,1409,#FF0000,#FF44FF,false,glopek|flumig|glumix|floxen
3e1c54fb-37a5-4c01-b712-b7fc50c2fd0c,190f18ba-dab4-4922-9cc7-4dd41a7f14fd,2025-09-30T14:55:05.812063,5,colored_bg,voiture,voiture,true,1024,#FF6600,#44FF44,true,poisson|voiture|livre|forêt
3e1c54fb-37a5-4c01-b712-b7fc50c2fd0c,190f18ba-dab4-4922-9cc7-4dd41a7f14fd,2025-09-30T14:55:05.855648,6,colored_bg,kraxon,kraxon,true,1348,#0000FF,#FF8800,false,kraxon|tralux|braxon|krenov
3e1c54fb-37a5-4c01-b712-b7fc50c2fd0c,190f18ba-dab4-4922-9cc7-4dd41a7f14fd,2025-09-30T14:55:05.896990,7,colored_bg,krenov,krenov,true,1916,#8B00FF,#FF8800,false,braxon|frunez|krimol|krenov
3e1c54fb-37a5-4c01-b712-b7fc50c2fd0c,190f18ba-dab4-4922-9cc7-4dd41a7f14fd,2025-09-30T14:55:05.939610,8,colored_bg,magasin,magasin,true,1301,#FF6600,#FF44FF,true,jardin|poisson|forêt|magasin
3e1c54fb-37a5-4c01-b712-b7fc50c2fd0c,190f18ba-dab4-4922-9cc7-4dd41a7f14fd,2025-09-30T14:55:05.980902,9,colored_bg,tronez,tronez,true,1346,#FF6600,#4444FF,false,tronez|glopek|tralux|frunez
3e1c54fb-37a5-4c01-b712-b7fc50c2fd0c,190f18ba-dab4-4922-9cc7-4dd41a7f14fd,2025-09-30T14:55:06.028321,10,colored_bg,tralux,tralux,true,1766,#8B00FF,#FF8800,false,braxon|tronez|tralux|vokrim
4a149820-390b-46ff-8548-f322195b2cdf,6c9f09bc-cd25-4e2a-8ad9-fc1959d39cc3,2025-10-09T14:18:25.269302,1,bw,porte,porte,True,1031,#000000,#FFFFFF,True,pomme|porte|plage|voiture
4a149820-390b-46ff-8548-f322195b2cdf,6c9f09bc-cd25-4e2a-8ad9-fc1959d39cc3,2025-10-09T14:18:29.664137,2,bw,quilmex,quilmex,True,1145,#000000,#FFFFFF,False,krenov|prixel|doltex|quilmex
4a149820-390b-46ff-8548-f322195b2cdf,6c9f09bc-cd25-4e2a-8ad9-fc1959d39cc3,2025-10-09T14:18:33.643731,3,bw,porte,porte,True,833,#000000,#FFFFFF,True,porte|pomme|oiseau|plage
4a149820-390b-46ff-8548-f322195b2cdf,6c9f09bc-cd25-4e2a-8ad9-fc1959d39cc3,2025-10-09T14:18:37.776389,4,bw,chien,chien,True,771,#000000,#FFFFFF,True,hôpital|chien|chat|magasin
4a149820-390b-46ff-8548-f322195b2cdf,6c9f09bc-cd25-4e2a-8ad9-fc1959d39cc3,2025-10-09T14:18:42.441663,5,bw,blomek,blomek,True,1335,#000000,#FFFFFF,False,blixor|blomek|pluvex|glopek
4a149820-390b-46ff-8548-f322195b2cdf,6c9f09bc-cd25-4e2a-8ad9-fc1959d39cc3,2025-10-09T14:18:46.618670,6,bw,floxen,floxen,True,803,#000000,#FFFFFF,False,floxen|flumig|frunez|blixor
4a149820-390b-46ff-8548-f322195b2cdf,6c9f09bc-cd25-4e2a-8ad9-fc1959d39cc3,2025-10-09T14:18:50.891324,7,bw,jardin,jardin,True,974,#000000,#FFFFFF,True,maison|jardin|école|magasin
4a149820-390b-46ff-8548-f322195b2cdf,6c9f09bc-cd25-4e2a-8ad9-fc1959d39cc3,2025-10-09T14:18:55.193471,8,bw,frunez,frunez,True,1178,#000000,#FFFFFF,False,flumig|krenov|tronez|frunez
4a149820-390b-46ff-8548-f322195b2cdf,6c9f09bc-cd25-4e2a-8ad9-fc1959d39cc3,2025-10-09T14:18:59.181132,9,bw,frunez,frunez,True,868,#000000,#FFFFFF,False,tronez|frunez|krenov|flumig
4a149820-390b-46ff-8548-f322195b2cdf,6c9f09bc-cd25-4e2a-8ad9-fc1959d39cc3,2025-10-09T14:19:03.342865,10,bw,pomme,pomme,True,869,#000000,#FFFFFF,True,porte|pomme|plage|poisson
4a149820-390b-46ff-8548-f322195b2cdf,6c9f09bc-cd25-4e2a-8ad9-fc1959d39cc3,2025-10-09T14:19:09.517735,1,color,voiture,voiture,True,1170,#00C800,#FFFFFF,True,poisson|forêt|voiture|livre
4a149820-390b-46ff-8548-f322195b2cdf,6c9f09bc-cd25-4e2a-8ad9-fc1959d39cc3,2025-10-09T14:19:13.482530,2,color,chien,chien,True,720,#0000FF,#FFFFFF,True,arbre|forêt|chien|chat
4a149820-390b-46ff-8548-f322195b2cdf,6c9f09bc-cd25-4e2a-8ad9-fc1959d39cc3,2025-10-09T14:19:18.056376,3,color,quilmex,quilmex,True,1315,#FF0000,#FFFFFF,False,glopek|quilmex|doltex|blixor
4a149820-390b-46ff-8548-f322195b2cdf,6c9f09bc-cd25-4e2a-8ad9-fc1959d39cc3,2025-10-09T14:19:22.665631,4,color,floxen,floxen,True,1417,#00C800,#FFFFFF,False,flumig|frunez|floxen|blixor
4a149820-390b-46ff-8548-f322195b2cdf,6c9f09bc-cd25-4e2a-8ad9-fc1959d39cc3,2025-10-09T14:19:26.856202,5,color,poisson,poisson,True,993,#FF0000,#FFFFFF,True,voiture|poisson|maison|pomme
4a149820-390b-46ff-8548-f322195b2cdf,6c9f09bc-cd25-4e2a-8ad9-fc1959d39cc3,2025-10-09T14:19:31.527958,6,color,rivière,rivière,True,1358,#0000FF,#FFFFFF,True,fenêtre|rivière|forêt|voiture
4a149820-390b-46ff-8548-f322195b2cdf,6c9f09bc-cd25-4e2a-8ad9-fc1959d39cc3,2025-10-09T14:19:35.621871,7,color,plage,plage,True,960,#FF6600,#FFFFFF,True,porte|forêt|plage|pomme
4a149820-390b-46ff-8548-f322195b2cdf,6c9f09bc-cd25-4e2a-8ad9-fc1959d39cc3,2025-10-09T14:19:39.635450,8,color,pomme,pomme,True,703,#00C800,#FFFFFF,True,plage|pomme|forêt|poisson
4a149820-390b-46ff-8548-f322195b2cdf,6c9f09bc-cd25-4e2a-8ad9-fc1959d39cc3,2025-10-09T14:19:44.101292,9,color,porte,porte,True,1247,#8B00FF,#FFFFFF,True,pomme|forêt|porte|plage
4a149820-390b-46ff-8548-f322195b2cdf,6c9f09bc-cd25-4e2a-8ad9-fc1959d39cc3,2025-10-09T14:19:48.263909,10,color,tralux,tralux,True,924,#FF6600,#FFFFFF,False,braxon|vraliq|tralux|tronez
4a149820-390b-46ff-8548-f322195b2cdf,6c9f09bc-cd25-4e2a-8ad9-fc1959d39cc3,2025-10-09T14:19:54.504683,1,colored_bg,flumig,flumig,True,1532,#8B00FF,#FF4444,False,floxen|flumig|frunez|glumix
4a149820-390b-46ff-8548-f322195b2cdf,6c9f09bc-cd25-4e2a-8ad9-fc1959d39cc3,2025-10-09T14:19:59.045490,2,colored_bg,braxon,braxon,True,1141,#8B00FF,#FF4444,False,braxon|blixor|tralux|kraxon
4a149820-390b-46ff-8548-f322195b2cdf,6c9f09bc-cd25-4e2a-8ad9-fc1959d39cc3,2025-10-09T14:20:03.794066,3,colored_bg,blomek,blomek,True,1483,#FF6600,#4444FF,False,glumix|blixor|glopek|blomek
4a149820-390b-46ff-8548-f322195b2cdf,6c9f09bc-cd25-4e2a-8ad9-fc1959d39cc3,2025-10-09T14:20:08.239829,4,colored_bg,chat,chat,True,1221,#00C800,#FF44FF,True,chat|forêt|chien|porte
4a149820-390b-46ff-8548-f322195b2cdf,6c9f09bc-cd25-4e2a-8ad9-fc1959d39cc3,2025-10-09T14:20:12.454051,5,colored_bg,porte,porte,True,916,#00C800,#44FF44,True,plage|pomme|forêt|porte
4a149820-390b-46ff-8548-f322195b2cdf,6c9f09bc-cd25-4e2a-8ad9-fc1959d39cc3,2025-10-09T14:20:17.468733,6,colored_bg,porte,porte,True,1665,#00C800,#4444FF,True,porte|pomme|plage|forêt
4a149820-390b-46ff-8548-f322195b2cdf,6c9f09bc-cd25-4e2a-8ad9-fc1959d39cc3,2025-10-09T14:20:21.772187,7,colored_bg,porte,porte,True,1176,#FF6600,#8844FF,True,forêt|plage|pomme|porte
4a149820-390b-46ff-8548-f322195b2cdf,6c9f09bc-cd25-4e2a-8ad9-fc1959d39cc3,2025-10-09T14:20:25.704722,8,colored_bg,jardin,jardin,True,758,#FF0000,#44FFFF,True,jardin|maison|forêt|magasin
4a149820-390b-46ff-8548-f322195b2cdf,6c9f09bc-cd25-4e2a-8ad9-fc1959d39cc3,2025-10-09T14:20:30.051909,9,colored_bg,jardin,jardin,True,999,#FF0000,#44FFFF,True,maison|forêt|magasin|jardin
4a149820-390b-46ff-8548-f322195b2cdf,6c9f09bc-cd25-4e2a-8ad9-fc1959d39cc3,2025-10-09T14:20:34.472463,10,colored_bg,oiseau,oiseau,True,1232,#FF6600,#FF44FF,True,chat|forêt|école|oiseau
4a149820-390b-46ff-8548-f322195b2cdf,6c9f09bc-cd25-4e2a-8ad9-fc1959d39cc3,2025-10-09T14:20:40.559513,1,bw,porte,porte,true,1031,#000000,#FFFFFF,true,pomme|porte|plage|voiture
4a149820-390b-46ff-8548-f322195b2cdf,6c9f09bc-cd25-4e2a-8ad9-fc1959d39cc3,2025-10-09T14:20:40.601393,2,bw,quilmex,quilmex,true,1145,#000000,#FFFFFF,false,krenov|prixel|doltex|quilmex
4a149820-390b-46ff-8548-f322195b2cdf,6c9f09bc-cd25-4e2a-8ad9-fc1959d39cc3,2025-10-09T14:20:40.656325,3,bw,porte,porte,true,833,#000000,#FFFFFF,true,porte|pomme|oiseau|plage
4a149820-390b-46ff-8548-f322195b2cdf,6c9f09bc-cd25-4e2a-8ad9-fc1959d39cc3,2025-10-09T14:20:40.724026,4,bw,chien,chien,true,771,#000000,#FFFFFF,true,hôpital|chien|chat|magasin
4a149820-390b-46ff-8548-f322195b2cdf,6c9f09bc-cd25-4e2a-8ad9-fc1959d39cc3,2025-10-09T14:20:40.870393,5,bw,blomek,blomek,true,1335,#000000,#FFFFFF,false,blixor|blomek|pluvex|glopek
4a149820-390b-46ff-8548-f322195b2cdf,6c9f09bc-cd25-4e2a-8ad9-fc1959d39cc3,2025-10-09T14:20:40.967565,6,bw,floxen,floxen,true,803,#000000,#FFFFFF,false,floxen|flumig|frunez|blixor
4a149820-390b-46ff-8548-f322195b2cdf,6c9f09bc-cd25-4e2a-8ad9-fc1959d39cc3,2025-10-09T14:20:41.069749,7,bw,jardin,jardin,true,974,#000000,#FFFFFF,true,maison|jardin|école|magasin
4a149820-390b-46ff-8548-f322195b2cdf,6c9f09bc-cd25-4e2a-8ad9-fc1959d39cc3,2025-10-09T14:20:41.172415,8,bw,frunez,frunez,true,1178,#000000,#FFFFFF,false,flumig|krenov|tronez|frunez
4a149820-390b-46ff-8548-f322195b2cdf,6c9f09bc-cd25-4e2a-8ad9-fc1959d39cc3,2025-10-09T14:20:41.275044,9,bw,frunez,frunez,true,868,#000000,#FFFFFF,false,tronez|frunez|krenov|flumig
4a149820-390b-46ff-8548-f322195b2cdf,6c9f09bc-cd25-4e2a-8ad9-fc1959d39cc3,2025-10-09T14:20:41.388245,10,bw,pomme,pomme,true,869,#000000,#FFFFFF,true,porte|pomme|plage|poisson
4a149820-390b-46ff-8548-f322195b2cdf,6c9f09bc-cd25-4e2a-8ad9-fc1959d39cc3,2025-10-09T14:20:41.479875,1,color,voiture,voiture,true,1170,#00C800,#FFFFFF,true,poisson|forêt|voiture|livre
4a149820-390b-46ff-8548-f322195b2cdf,6c9f09bc-cd25-4e2a-8ad9-fc1959d39cc3,2025-10-09T14:20:41.581040,2,color,chien,chien,true,720,#0000FF,#FFFFFF,true,arbre|forêt|chien|chat
4a149820-390b-46ff-8548-f322195b2cdf,6c9f09bc-cd25-4e2a-8ad9-fc1959d39cc3,2025-10-09T14:20:41.677584,3,color,quilmex,quilmex,true,1315,#FF0000,#FFFFFF,false,glopek|quilmex|doltex|blixor
4a149820-390b-46ff-8548-f322195b2cdf,6c9f09bc-cd25-4e2a-8ad9-fc1959d39cc3,2025-10-09T14:20:41.793617,4,color,floxen,floxen,true,1417,#00C800,#FFFFFF,false,flumig|frunez|floxen|blixor
4a149820-390b-46ff-8548-f322195b2cdf,6c9f09bc-cd25-4e2a-8ad9-fc1959d39cc3,2025-10-09T14:20:41.889227,5,color,poisson,poisson,true,993,#FF0000,#FFFFFF,true,voiture|poisson|maison|pomme
4a149820-390b-46ff-8548-f322195b2cdf,6c9f09bc-cd25-4e2a-8ad9-fc1959d39cc3,2025-10-09T14:20:41.989932,6,color,rivière,rivière,true,1358,#0000FF,#FFFFFF,true,fenêtre|rivière|forêt|voiture
4a149820-390b-46ff-8548-f322195b2cdf,6c9f09bc-cd25-4e2a-8ad9-fc1959d39cc3,2025-10-09T14:20:42.091643,7,color,plage,plage,true,960,#FF6600,#FFFFFF,true,porte|forêt|plage|pomme
4a149820-390b-46ff-8548-f322195b2cdf,6c9f09bc-cd25-4e2a-8ad9-fc1959d39cc3,2025-10-09T14:20:42.195430,8,color,pomme,pomme,true,703,#00C800,#FFFFFF,true,plage|pomme|forêt|poisson
4a149820-390b-46ff-8548-f322195b2cdf,6c9f09bc-cd25-4e2a-8ad9-fc1959d39cc3,2025-10-09T14:20:42.300754,9,color,porte,porte,true,1247,#8B00FF,#FFFFFF,true,pomme|forêt|porte|plage
4a149820-390b-46ff-8548-f322195b2cdf,6c9f09bc-cd25-4e2a-8ad9-fc1959d39cc3,2025-10-09T14:20:42.406359,10,color,tralux,tralux,true,924,#FF6600,#FFFFFF,false,braxon|vraliq|tralux|tronez
4a149820-390b-46ff-8548-f322195b2cdf,6c9f09bc-cd25-4e2a-8ad9-fc1959d39cc3,2025-10-09T14:20:42.505072,1,colored_bg,flumig,flumig,true,1532,#8B00FF,#FF4444,false,floxen|flumig|frunez|glumix
4a149820-390b-46ff-8548-f322195b2cdf,6c9f09bc-cd25-4e2a-8ad9-fc1959d39cc3,2025-10-09T14:20:42.606923,2,colored_bg,braxon,braxon,true,1141,#8B00FF,#FF4444,false,braxon|blixor|tralux|kraxon
4a149820-390b-46ff-8548-f322195b2cdf,6c9f09bc-cd25-4e2a-8ad9-fc1959d39cc3,2025-10-09T14:20:42.705210,3,colored_bg,blomek,blomek,true,1483,#FF6600,#4444FF,false,glumix|blixor|glopek|blomek
4a149820-390b-46ff-8548-f322195b2cdf,6c9f09bc-cd25-4e2a-8ad9-fc1959d39cc3,2025-10-09T14:20:42.806973,4,colored_bg,chat,chat,true,1221,#00C800,#FF44FF,true,chat|forêt|chien|porte
4a149820-390b-46ff-8548-f322195b2cdf,6c9f09bc-cd25-4e2a-8ad9-fc1959d39cc3,2025-10-09T14:20:42.914797,5,colored_bg,porte,porte,true,916,#00C800,#44FF44,true,plage|pomme|forêt|porte
4a149820-390b-46ff-8548-f322195b2cdf,6c9f09bc-cd25-4e2a-8ad9-fc1959d39cc3,2025-10-09T14:20:43.014275,6,colored_bg,porte,porte,true,1665,#00C800,#4444FF,true,porte|pomme|plage|forêt
4a149820-390b-46ff-8548-f322195b2cdf,6c9f09bc-cd25-4e2a-8ad9-fc1959d39cc3,2025-10-09T14:20:43.111987,7,colored_bg,porte,porte,true,1176,#FF6600,#8844FF,true,forêt|plage|pomme|porte
4a149820-390b-46ff-8548-f322195b2cdf,6c9f09bc-cd25-4e2a-8ad9-fc1959d39cc3,2025-10-09T14:20:43.218258,8,colored_bg,jardin,jardin,true,758,#FF0000,#44FFFF,true,jardin|maison|forêt|magasin
4a149820-390b-46ff-8548-f322195b2cdf,6c9f09bc-cd25-4e2a-8ad9-fc1959d39cc3,2025-10-09T14:20:43.338450,9,colored_bg,jardin,jardin,true,999,#FF0000,#44FFFF,true,maison|forêt|magasin|jardin
4a149820-390b-46ff-8548-f322195b2cdf,6c9f09bc-cd25-4e2a-8ad9-fc1959d39cc3,2025-10-09T14:20:43.376079,10,colored_bg,oiseau,oiseau,true,1232,#FF6600,#FF44FF,true,chat|forêt|école|oiseau
test_session,test_participant,2025-10-09T14:21:14.260114,1,test,test_word,test_response,True,500,#000000,#ffffff,True,test_word|choice2|choice3|choice4
cd8ecb59-e5cc-4a83-8fdc-ad4217849c8b,429e0465-2dcb-4a37-adc5-4cb6d16603eb,2025-10-09T17:42:07.485015,1,bw,blomek,blomek,True,1323,#000000,#FFFFFF,False,blomek|blixor|glumix|glopek
cd8ecb59-e5cc-4a83-8fdc-ad4217849c8b,429e0465-2dcb-4a37-adc5-4cb6d16603eb,2025-10-09T17:42:11.863607,2,bw,blefox,blefox,True,1017,#000000,#FFFFFF,False,pluvex|braxon|blefox|blixor
cd8ecb59-e5cc-4a83-8fdc-ad4217849c8b,429e0465-2dcb-4a37-adc5-4cb6d16603eb,2025-10-09T17:42:16.364608,3,bw,vokrim,vokrim,True,1140,#000000,#FFFFFF,False,vraliq|tronez|vokrim|drixel
cd8ecb59-e5cc-4a83-8fdc-ad4217849c8b,429e0465-2dcb-4a37-adc5-4cb6d16603eb,2025-10-09T17:42:20.966534,4,bw,vokrim,vokrim,True,1225,#000000,#FFFFFF,False,vokrim|vraliq|tralux|kraxon
cd8ecb59-e5cc-4a83-8fdc-ad4217849c8b,429e0465-2dcb-4a37-adc5-4cb6d16603eb,2025-10-09T17:42:25.476031,5,bw,chat,chat,True,1138,#000000,#FFFFFF,True,soleil|pomme|chien|chat
cd8ecb59-e5cc-4a83-8fdc-ad4217849c8b,429e0465-2dcb-4a37-adc5-4cb6d16603eb,2025-10-09T17:42:29.671761,6,bw,porte,porte,True,825,#000000,#FFFFFF,True,pomme|fenêtre|porte|plage
cd8ecb59-e5cc-4a83-8fdc-ad4217849c8b,429e0465-2dcb-4a37-adc5-4cb6d16603eb,2025-10-09T17:42:34.287958,7,bw,hôpital,hôpital,True,1270,#000000,#FFFFFF,True,montagne|hôpital|rivière|chat
cd8ecb59-e5cc-4a83-8fdc-ad4217849c8b,429e0465-2dcb-4a37-adc5-4cb6d16603eb,2025-10-09T17:42:38.643784,8,bw,arbre,arbre,True,1004,#000000,#FFFFFF,True,livre|table|arbre|voiture
cd8ecb59-e5cc-4a83-8fdc-ad4217849c8b,429e0465-2dcb-4a37-adc5-4cb6d16603eb,2025-10-09T17:42:43.134109,9,bw,blefox,blixor,False,1145,#000000,#FFFFFF,False,vokrim|braxon|blixor|blefox
cd8ecb59-e5cc-4a83-8fdc-ad4217849c8b,429e0465-2dcb-4a37-adc5-4cb6d16603eb,2025-10-09T17:42:47.758777,10,bw,chaise,chaise,True,1272,#000000,#FFFFFF,True,table|chien|chaise|école
cd8ecb59-e5cc-4a83-8fdc-ad4217849c8b,429e0465-2dcb-4a37-adc5-4cb6d16603eb,2025-10-09T17:43:01.996383,1,color,forêt,forêt,True,1218,#8B00FF,#FFFFFF,True,forêt|porte|poisson|pomme
cd8ecb59-e5cc-4a83-8fdc-ad4217849c8b,429e0465-2dcb-4a37-adc5-4cb6d16603eb,2025-10-09T17:43:07.279073,2,color,drixel,drixel,True,1902,#8B00FF,#FFFFFF,False,frunez|blixor|prixel|drixel
cd8ecb59-e5cc-4a83-8fdc-ad4217849c8b,429e0465-2dcb-4a37-adc5-4cb6d16603eb,2025-10-09T17:43:12.539365,3,color,floxen,floxen,True,1869,#00C800,#FFFFFF,False,flumig|frunez|blixor|floxen
cd8ecb59-e5cc-4a83-8fdc-ad4217849c8b,429e0465-2dcb-4a37-adc5-4cb6d16603eb,2025-10-09T17:43:17.331393,4,color,krimol,krimol,True,1424,#00C800,#FFFFFF,False,krimol|krenov|blixor|braxon
cd8ecb59-e5cc-4a83-8fdc-ad4217849c8b,429e0465-2dcb-4a37-adc5-4cb6d16603eb,2025-10-09T17:43:21.802111,5,color,plage,plage,True,1115,#8B00FF,#FFFFFF,True,plage|pomme|forêt|porte
cd8ecb59-e5cc-4a83-8fdc-ad4217849c8b,429e0465-2dcb-4a37-adc5-4cb6d16603eb,2025-10-09T17:43:26.519783,6,color,chien,chien,True,1359,#8B00FF,#FFFFFF,True,forêt|chat|jardin|chien
cd8ecb59-e5cc-4a83-8fdc-ad4217849c8b,429e0465-2dcb-4a37-adc5-4cb6d16603eb,2025-10-09T17:43:31.489971,7,color,poisson,poisson,True,1603,#0000FF,#FFFFFF,True,poisson|magasin|voiture|forêt
cd8ecb59-e5cc-4a83-8fdc-ad4217849c8b,429e0465-2dcb-4a37-adc5-4cb6d16603eb,2025-10-09T17:43:35.791529,8,color,hôpital,hôpital,True,929,#00C800,#FFFFFF,True,forêt|lune|hôpital|porte
cd8ecb59-e5cc-4a83-8fdc-ad4217849c8b,429e0465-2dcb-4a37-adc5-4cb6d16603eb,2025-10-09T17:43:40.445873,9,color,forêt,forêt,True,1303,#0000FF,#FFFFFF,True,livre|pomme|porte|forêt
cd8ecb59-e5cc-4a83-8fdc-ad4217849c8b,429e0465-2dcb-4a37-adc5-4cb6d16603eb,2025-10-09T17:43:45.840777,10,color,blomek,blomek,True,2044,#FF0000,#FFFFFF,False,blefox|blomek|glopek|blixor
cd8ecb59-e5cc-4a83-8fdc-ad4217849c8b,429e0465-2dcb-4a37-adc5-4cb6d16603eb,2025-10-09T17:44:00.634315,1,colored_bg,flumig,flumig,True,1635,#8B00FF,#44FF44,False,glumix|floxen|flumig|frunez
cd8ecb59-e5cc-4a83-8fdc-ad4217849c8b,429e0465-2dcb-4a37-adc5-4cb6d16603eb,2025-10-09T17:44:05.972906,2,colored_bg,flumig,flumig,True,1987,#FF6600,#FF44FF,False,glumix|floxen|frunez|flumig
cd8ecb59-e5cc-4a83-8fdc-ad4217849c8b,429e0465-2dcb-4a37-adc5-4cb6d16603eb,2025-10-09T17:44:11.102688,3,colored_bg,prixel,prixel,True,1779,#FF0000,#44FFFF,False,frunez|prixel|blixor|drixel
cd8ecb59-e5cc-4a83-8fdc-ad4217849c8b,429e0465-2dcb-4a37-adc5-4cb6d16603eb,2025-10-09T17:44:15.749078,4,colored_bg,chien,chien,True,1274,#00C800,#FF8800,True,forêt|chat|chien|lune
cd8ecb59-e5cc-4a83-8fdc-ad4217849c8b,429e0465-2dcb-4a37-adc5-4cb6d16603eb,2025-10-09T17:44:20.230021,5,colored_bg,oiseau,oiseau,True,1100,#FF6600,#FF44FF,True,oiseau|rivière|forêt|arbre
cd8ecb59-e5cc-4a83-8fdc-ad4217849c8b,429e0465-2dcb-4a37-adc5-4cb6d16603eb,2025-10-09T17:44:24.784597,6,colored_bg,pluvex,pluvex,True,1191,#00C800,#FF8800,False,pluvex|frunez|glopek|quilmex
cd8ecb59-e5cc-4a83-8fdc-ad4217849c8b,429e0465-2dcb-4a37-adc5-4cb6d16603eb,2025-10-09T17:44:29.262236,7,colored_bg,rivière,rivière,True,1098,#FF0000,#FF8800,True,forêt|voiture|rivière|fenêtre
cd8ecb59-e5cc-4a83-8fdc-ad4217849c8b,429e0465-2dcb-4a37-adc5-4cb6d16603eb,2025-10-09T17:44:33.507947,8,colored_bg,arbre,arbre,True,894,#FF6600,#FF44FF,True,arbre|table|livre|voiture
cd8ecb59-e5cc-4a83-8fdc-ad4217849c8b,429e0465-2dcb-4a37-adc5-4cb6d16603eb,2025-10-09T17:44:38.920910,9,colored_bg,frunez,frunez,True,2028,#FF6600,#FF44FF,False,krenov|flumig|tronez|frunez
cd8ecb59-e5cc-4a83-8fdc-ad4217849c8b,429e0465-2dcb-4a37-adc5-4cb6d16603eb,2025-10-09T17:44:43.407564,10,colored_bg,zephiq,zephiq,True,1127,#FF6600,#FF44FF,False,zephiq|vraliq|frunez|krimol
cd8ecb59-e5cc-4a83-8fdc-ad4217849c8b,429e0465-2dcb-4a37-adc5-4cb6d16603eb,2025-10-09T17:45:00.431793,1,bw,blomek,blomek,true,1323,#000000,#FFFFFF,false,blomek|blixor|glumix|glopek
cd8ecb59-e5cc-4a83-8fdc-ad4217849c8b,429e0465-2dcb-4a37-adc5-4cb6d16603eb,2025-10-09T17:45:00.568398,2,bw,blefox,blefox,true,1017,#000000,#FFFFFF,false,pluvex|braxon|blefox|blixor
cd8ecb59-e5cc-4a83-8fdc-ad4217849c8b,429e0465-2dcb-4a37-adc5-4cb6d16603eb,2025-10-09T17:45:00.706961,3,bw,vokrim,vokrim,true,1140,#000000,#FFFFFF,false,vraliq|tronez|vokrim|drixel
cd8ecb59-e5cc-4a83-8fdc-ad4217849c8b,429e0465-2dcb-4a37-adc5-4cb6d16603eb,2025-10-09T17:45:00.839749,4,bw,vokrim,vokrim,true,1225,#000000,#FFFFFF,false,vokrim|vraliq|tralux|kraxon
cd8ecb59-e5cc-4a83-8fdc-ad4217849c8b,429e0465-2dcb-4a37-adc5-4cb6d16603eb,2025-10-09T17:45:00.972958,5,bw,chat,chat,true,1138,#000000,#FFFFFF,true,soleil|pomme|chien|chat
cd8ecb59-e5cc-4a83-8fdc-ad4217849c8b,429e0465-2dcb-4a37-adc5-4cb6d16603eb,2025-10-09T17:45:01.114276,6,bw,porte,porte,true,825,#000000,#FFFFFF,true,pomme|fenêtre|porte|plage
cd8ecb59-e5cc-4a83-8fdc-ad4217849c8b,429e0465-2dcb-4a37-adc5-4cb6d16603eb,2025-10-09T17:45:01.255274,7,bw,hôpital,hôpital,true,1270,#000000,#FFFFFF,true,montagne|hôpital|rivière|chat
cd8ecb59-e5cc-4a83-8fdc-ad4217849c8b,429e0465-2dcb-4a37-adc5-4cb6d16603eb,2025-10-09T17:45:01.392708,8,bw,arbre,arbre,true,1004,#000000,#FFFFFF,true,livre|table|arbre|voiture
cd8ecb59-e5cc-4a83-8fdc-ad4217849c8b,429e0465-2dcb-4a37-adc5-4cb6d16603eb,2025-10-09T17:45:01.530034,9,bw,blefox,blixor,false,1145,#000000,#FFFFFF,false,vokrim|braxon|blixor|blefox
cd8ecb59-e5cc-4a83-8fdc-ad4217849c8b,429e0465-2dcb-4a37-adc5-4cb6d16603eb,2025-10-09T17:45:01.669023,10,bw,chaise,chaise,true,1272,#000000,#FFFFFF,true,table|chien|chaise|école
cd8ecb59-e5cc-4a83-8fdc-ad4217849c8b,429e0465-2dcb-4a37-adc5-4cb6d16603eb,2025-10-09T17:45:01.806287,1,color,forêt,forêt,true,1218,#8B00FF,#FFFFFF,true,forêt|porte|poisson|pomme
cd8ecb59-e5cc-4a83-8fdc-ad4217849c8b,429e0465-2dcb-4a37-adc5-4cb6d16603eb,2025-10-09T17:45:01.951934,2,color,drixel,drixel,true,1902,#8B00FF,#FFFFFF,false,frunez|blixor|prixel|drixel
cd8ecb59-e5cc-4a83-8fdc-ad4217849c8b,429e0465-2dcb-4a37-adc5-4cb6d16603eb,2025-10-09T17:45:02.091114,3,color,floxen,floxen,true,1869,#00C800,#FFFFFF,false,flumig|frunez|blixor|floxen
cd8ecb59-e5cc-4a83-8fdc-ad4217849c8b,429e0465-2dcb-4a37-adc5-4cb6d16603eb,2025-10-09T17:45:02.231828,4,color,krimol,krimol,true,1424,#00C800,#FFFFFF,false,krimol|krenov|blixor|braxon
cd8ecb59-e5cc-4a83-8fdc-ad4217849c8b,429e0465-2dcb-4a37-adc5-4cb6d16603eb,2025-10-09T17:45:02.379656,5,color,plage,plage,true,1115,#8B00FF,#FFFFFF,true,plage|pomme|forêt|porte
cd8ecb59-e5cc-4a83-8fdc-ad4217849c8b,429e0465-2dcb-4a37-adc5-4cb6d16603eb,2025-10-09T17:45:02.519014,6,color,chien,chien,true,1359,#8B00FF,#FFFFFF,true,forêt|chat|jardin|chien
cd8ecb59-e5cc-4a83-8fdc-ad4217849c8b,429e0465-2dcb-4a37-adc5-4cb6d16603eb,2025-10-09T17:45:02.658254,7,color,poisson,poisson,true,1603,#0000FF,#FFFFFF,true,poisson|magasin|voiture|forêt
cd8ecb59-e5cc-4a83-8fdc-ad4217849c8b,429e0465-2dcb-4a37-adc5-4cb6d16603eb,2025-10-09T17:45:02.793352,8,color,hôpital,hôpital,true,929,#00C800,#FFFFFF,true,forêt|lune|hôpital|porte
cd8ecb59-e5cc-4a83-8fdc-ad4217849c8b,429e0465-2dcb-4a37-adc5-4cb6d16603eb,2025-10-09T17:45:03.054198,9,color,forêt,forêt,true,1303,#0000FF,#FFFFFF,true,livre|pomme|porte|forêt
cd8ecb59-e5cc-4a83-8fdc-ad4217849c8b,429e0465-2dcb-4a37-adc5-4cb6d16603eb,2025-10-09T17:45:03.194250,10,color,blomek,blomek,true,2044,#FF0000,#FFFFFF,false,blefox|blomek|glopek|blixor
cd8ecb59-e5cc-4a83-8fdc-ad4217849c8b,429e0465-2dcb-4a37-adc5-4cb6d16603eb,2025-10-09T17:45:03.332431,1,colored_bg,flumig,flumig,true,1635,#8B00FF,#44FF44,false,glumix|floxen|flumig|frunez
cd8ecb59-e5cc-4a83-8fdc-ad4217849c8b,429e0465-2dcb-4a37-adc5-4cb6d16603eb,2025-10-09T17:45:03.477090,2,colored_bg,flumig,flumig,true,1987,#FF6600,#FF44FF,false,glumix|floxen|frunez|flumig
cd8ecb59-e5cc-4a83-8fdc-ad4217849c8b,429e0465-2dcb-4a37-adc5-4cb6d16603eb,2025-10-09T17:45:03.628955,3,colored_bg,prixel,prixel,true,1779,#FF0000,#44FFFF,false,frunez|prixel|blixor|drixel
cd8ecb59-e5cc-4a83-8fdc-ad4217849c8b,429e0465-2dcb-4a37-adc5-4cb6d16603eb,2025-10-09T17:45:03.871619,4,colored_bg,chien,chien,true,1274,#00C800,#FF8800,true,forêt|chat|chien|lune
cd8ecb59-e5cc-4a83-8fdc-ad4217849c8b,429e0465-2dcb-4a37-adc5-4cb6d16603eb,2025-10-09T17:45:04.010538,5,colored_bg,oiseau,oiseau,true,1100,#FF6600,#FF44FF,true,oiseau|rivière|forêt|arbre
cd8ecb59-e5cc-4a83-8fdc-ad4217849c8b,429e0465-2dcb-4a37-adc5-4cb6d16603eb,2025-10-09T17:45:04.147796,6,colored_bg,pluvex,pluvex,true,1191,#00C800,#FF8800,false,pluvex|frunez|glopek|quilmex
cd8ecb59-e5cc-4a83-8fdc-ad4217849c8b,429e0465-2dcb-4a37-adc5-4cb6d16603eb,2025-10-09T17:45:04.280418,7,colored_bg,rivière,rivière,true,1098,#FF0000,#FF8800,true,forêt|voiture|rivière|fenêtre
cd8ecb59-e5cc-4a83-8fdc-ad4217849c8b,429e0465-2dcb-4a37-adc5-4cb6d16603eb,2025-10-09T17:45:04.414411,8,colored_bg,arbre,arbre,true,894,#FF6600,#FF44FF,true,arbre|table|livre|voiture
cd8ecb59-e5cc-4a83-8fdc-ad4217849c8b,429e0465-2dcb-4a37-adc5-4cb6d16603eb,2025-10-09T17:45:04.667462,9,colored_bg,frunez,frunez,true,2028,#FF6600,#FF44FF,false,krenov|flumig|tronez|frunez
cd8ecb59-e5cc-4a83-8fdc-ad4217849c8b,429e0465-2dcb-4a37-adc5-4cb6d16603eb,2025-10-09T17:45:04.804018,10,colored_bg,zephiq,zephiq,true,1127,#FF6600,#FF44FF,false,zephiq|vraliq|frunez|krimol
1ba4fd5f-4527-463f-a1f3-133b165710cb,a92f43e4-c5f5-4a24-8df7-62f5a2c8310c,2025-10-10T18:03:17.912304,1,bw,kraxon,kraxon,True,2649,#000000,#FFFFFF,False,kraxon|braxon|krenov|tralux
1ba4fd5f-4527-463f-a1f3-133b165710cb,a92f43e4-c5f5-4a24-8df7-62f5a2c8310c,2025-10-10T18:03:22.258415,2,bw,montagne,montagne,True,1200,#000000,#FFFFFF,True,montagne|oiseau|maison|lune
3117e931-a65a-447a-a94b-b51096506b3b,6c67e890-4f9e-4e72-9453-fad106023fc1,2025-10-10T18:03:22.775794,1,bw,arbre,arbre,True,11582,#000000,#FFFFFF,True,arbre|voiture|table|livre
1ba4fd5f-4527-463f-a1f3-133b165710cb,a92f43e4-c5f5-4a24-8df7-62f5a2c8310c,2025-10-10T18:03:26.977693,3,bw,prixel,prixel,True,1500,#000000,#FFFFFF,False,prixel|frunez|blixor|drixel
1ba4fd5f-4527-463f-a1f3-133b165710cb,a92f43e4-c5f5-4a24-8df7-62f5a2c8310c,2025-10-10T18:03:31.403493,4,bw,vraliq,vraliq,True,1263,#000000,#FFFFFF,False,vraliq|tralux|zephiq|vokrim
d05089d1-e3d9-4948-b20f-659f9fb0041e,08bd69a6-e862-4bac-a070-5940575044c5,2025-10-10T18:03:32.368651,1,bw,magasin,poisson,False,12686,#000000,#FFFFFF,True,poisson|maison|magasin|jardin
1ba4fd5f-4527-463f-a1f3-133b165710cb,a92f43e4-c5f5-4a24-8df7-62f5a2c8310c,2025-10-10T18:03:35.933039,5,bw,vextor,vextor,True,1314,#000000,#FFFFFF,False,blixor|gextom|vextor|tralux
1ba4fd5f-4527-463f-a1f3-133b165710cb,a92f43e4-c5f5-4a24-8df7-62f5a2c8310c,2025-10-10T18:03:40.223475,6,bw,hôpital,hôpital,True,1117,#000000,#FFFFFF,True,voiture|hôpital|maison|montagne
3117e931-a65a-447a-a94b-b51096506b3b,6c67e890-4f9e-4e72-9453-fad106023fc1,2025-10-10T18:03:41.678860,2,bw,voiture,poisson,False,15701,#000000,#FFFFFF,True,poisson|voiture|rivière|livre
1ba4fd5f-4527-463f-a1f3-133b165710cb,a92f43e4-c5f5-4a24-8df7-62f5a2c8310c,2025-10-10T18:03:44.548976,7,bw,prixel,prixel,True,1163,#000000,#FFFFFF,False,blixor|prixel|frunez|drixel
1ba4fd5f-4527-463f-a1f3-133b165710cb,a92f43e4-c5f5-4a24-8df7-62f5a2c8310c,2025-10-10T18:03:48.889064,8,bw,soleil,soleil,True,1171,#000000,#FFFFFF,True,chat|soleil|forêt|voiture
3117e931-a65a-447a-a94b-b51096506b3b,6c67e890-4f9e-4e72-9453-fad106023fc1,2025-10-10T18:03:49.331527,3,bw,montagne,montagne,True,4360,#000000,#FFFFFF,True,lune|école|plage|montagne
1ba4fd5f-4527-463f-a1f3-133b165710cb,a92f43e4-c5f5-4a24-8df7-62f5a2c8310c,2025-10-10T18:03:53.218140,9,bw,chien,chien,True,1136,#000000,#FFFFFF,True,livre|chien|chat|pomme
3117e931-a65a-447a-a94b-b51096506b3b,6c67e890-4f9e-4e72-9453-fad106023fc1,2025-10-10T18:03:55.269438,4,bw,maison,maison,True,2672,#000000,#FFFFFF,True,poisson|magasin|jardin|maison
1ba4fd5f-4527-463f-a1f3-133b165710cb,a92f43e4-c5f5-4a24-8df7-62f5a2c8310c,2025-10-10T18:03:57.714613,10,bw,fleur,fleur,True,1243,#000000,#FFFFFF,True,montagne|hôpital|soleil|fleur
3117e931-a65a-447a-a94b-b51096506b3b,6c67e890-4f9e-4e72-9453-fad106023fc1,2025-10-10T18:04:00.024148,5,bw,krimol,blixor,False,1563,#000000,#FFFFFF,False,braxon|krenov|krimol|blixor
3117e931-a65a-447a-a94b-b51096506b3b,6c67e890-4f9e-4e72-9453-fad106023fc1,2025-10-10T18:04:04.982790,6,bw,école,école,True,1702,#000000,#FFFFFF,True,fleur|table|poisson|école
1ba4fd5f-4527-463f-a1f3-133b165710cb,a92f43e4-c5f5-4a24-8df7-62f5a2c8310c,2025-10-10T18:04:09.162523,1,color,chien,chien,True,2273,#FF6600,#FFFFFF,True,chat|chien|forêt|porte
3117e931-a65a-447a-a94b-b51096506b3b,6c67e890-4f9e-4e72-9453-fad106023fc1,2025-10-10T18:04:09.252733,7,bw,krenov,krenov,True,1072,#000000,#FFFFFF,False,frunez|braxon|krenov|krimol
3117e931-a65a-447a-a94b-b51096506b3b,6c67e890-4f9e-4e72-9453-fad106023fc1,2025-10-10T18:04:13.415016,8,bw,fenêtre,fenêtre,True,885,#000000,#FFFFFF,True,fenêtre|table|rivière|voiture
1ba4fd5f-4527-463f-a1f3-133b165710cb,a92f43e4-c5f5-4a24-8df7-62f5a2c8310c,2025-10-10T18:04:13.888011,2,color,fenêtre,fenêtre,True,1566,#FF0000,#FFFFFF,True,forêt|voiture|rivière|fenêtre
3117e931-a65a-447a-a94b-b51096506b3b,6c67e890-4f9e-4e72-9453-fad106023fc1,2025-10-10T18:04:17.717091,9,bw,lune,lune,True,1099,#000000,#FFFFFF,True,poisson|lune|soleil|montagne
1ba4fd5f-4527-463f-a1f3-133b165710cb,a92f43e4-c5f5-4a24-8df7-62f5a2c8310c,2025-10-10T18:04:18.308575,3,color,blefox,gextom,False,1253,#FF0000,#FFFFFF,False,blefox|gextom|blixor|braxon
3117e931-a65a-447a-a94b-b51096506b3b,6c67e890-4f9e-4e72-9453-fad106023fc1,2025-10-10T18:04:22.158564,10,bw,kraxon,kraxon,True,1235,#000000,#FFFFFF,False,tralux|blixor|krenov|kraxon
1ba4fd5f-4527-463f-a1f3-133b165710cb,a92f43e4-c5f5-4a24-8df7-62f5a2c8310c,2025-10-10T18:04:22.887939,4,color,porte,porte,True,1413,#FF6600,#FFFFFF,True,forêt|pomme|plage|porte
1ba4fd5f-4527-463f-a1f3-133b165710cb,a92f43e4-c5f5-4a24-8df7-62f5a2c8310c,2025-10-10T18:04:27.455590,5,color,plage,plage,True,1344,#FF6600,#FFFFFF,True,forêt|pomme|porte|plage
1ba4fd5f-4527-463f-a1f3-133b165710cb,a92f43e4-c5f5-4a24-8df7-62f5a2c8310c,2025-10-10T18:04:32.044392,6,color,drixel,drixel,True,1437,#FF6600,#FFFFFF,False,frunez|prixel|blixor|drixel
1ba4fd5f-4527-463f-a1f3-133b165710cb,a92f43e4-c5f5-4a24-8df7-62f5a2c8310c,2025-10-10T18:04:36.608079,7,color,porte,porte,True,1350,#8B00FF,#FFFFFF,True,plage|forêt|pomme|porte
1ba4fd5f-4527-463f-a1f3-133b165710cb,a92f43e4-c5f5-4a24-8df7-62f5a2c8310c,2025-10-10T18:04:41.791743,8,color,braxon,braxon,True,2018,#8B00FF,#FFFFFF,False,blixor|braxon|kraxon|tralux
1ba4fd5f-4527-463f-a1f3-133b165710cb,a92f43e4-c5f5-4a24-8df7-62f5a2c8310c,2025-10-10T18:04:46.396992,9,color,fleur,fleur,True,1442,#FF0000,#FFFFFF,True,forêt|maison|chien|fleur
1ba4fd5f-4527-463f-a1f3-133b165710cb,a92f43e4-c5f5-4a24-8df7-62f5a2c8310c,2025-10-10T18:04:50.906116,10,color,montagne,montagne,True,1342,#8B00FF,#FFFFFF,True,soleil|montagne|lune|forêt
3117e931-a65a-447a-a94b-b51096506b3b,6c67e890-4f9e-4e72-9453-fad106023fc1,2025-10-10T18:04:57.989909,1,color,blefox,krimol,False,1500,#0000FF,#FFFFFF,False,blefox|braxon|krimol|blixor
1ba4fd5f-4527-463f-a1f3-133b165710cb,a92f43e4-c5f5-4a24-8df7-62f5a2c8310c,2025-10-10T18:04:59.628437,1,colored_bg,maison,maison,True,1293,#FF6600,#44FF44,True,jardin|forêt|poisson|maison
3117e931-a65a-447a-a94b-b51096506b3b,6c67e890-4f9e-4e72-9453-fad106023fc1,2025-10-10T18:05:02.680727,2,color,prixel,blixor,False,1498,#8B00FF,#FFFFFF,False,frunez|prixel|drixel|blixor
1ba4fd5f-4527-463f-a1f3-133b165710cb,a92f43e4-c5f5-4a24-8df7-62f5a2c8310c,2025-10-10T18:05:04.009810,2,colored_bg,blixor,blixor,True,1167,#0000FF,#44FF44,False,blefox|vextor|blixor|prixel
1ba4fd5f-4527-463f-a1f3-133b165710cb,a92f43e4-c5f5-4a24-8df7-62f5a2c8310c,2025-10-10T18:05:08.503430,3,colored_bg,fenêtre,fenêtre,True,1289,#0000FF,#FF8800,True,forêt|voiture|rivière|fenêtre
1ba4fd5f-4527-463f-a1f3-133b165710cb,a92f43e4-c5f5-4a24-8df7-62f5a2c8310c,2025-10-10T18:05:13.157159,4,colored_bg,chat,chat,True,1496,#00C800,#8844FF,True,table|forêt|chien|chat
3117e931-a65a-447a-a94b-b51096506b3b,6c67e890-4f9e-4e72-9453-fad106023fc1,2025-10-10T18:05:15.650152,3,color,tralux,blomek,False,9710,#00C800,#FFFFFF,False,tronez|braxon|tralux|blomek
1ba4fd5f-4527-463f-a1f3-133b165710cb,a92f43e4-c5f5-4a24-8df7-62f5a2c8310c,2025-10-10T18:05:17.501201,5,colored_bg,lune,lune,True,1175,#00C800,#FF4444,True,fleur|montagne|forêt|lune
3117e931-a65a-447a-a94b-b51096506b3b,6c67e890-4f9e-4e72-9453-fad106023fc1,2025-10-10T18:05:20.534039,4,color,forêt,forêt,True,1643,#FF0000,#FFFFFF,True,rivière|pomme|forêt|porte
1ba4fd5f-4527-463f-a1f3-133b165710cb,a92f43e4-c5f5-4a24-8df7-62f5a2c8310c,2025-10-10T18:05:21.790934,6,colored_bg,vextor,vextor,True,1119,#0000FF,#44FFFF,False,gextom|blixor|vextor|doltex
3117e931-a65a-447a-a94b-b51096506b3b,6c67e890-4f9e-4e72-9453-fad106023fc1,2025-10-10T18:05:25.174228,5,color,magasin,magasin,True,1367,#00C800,#FFFFFF,True,poisson|forêt|magasin|maison
1ba4fd5f-4527-463f-a1f3-133b165710cb,a92f43e4-c5f5-4a24-8df7-62f5a2c8310c,2025-10-10T18:05:26.290283,7,colored_bg,krimol,krimol,True,1277,#00C800,#FF44FF,False,krimol|krenov|braxon|blixor
3117e931-a65a-447a-a94b-b51096506b3b,6c67e890-4f9e-4e72-9453-fad106023fc1,2025-10-10T18:05:29.674796,6,color,chaise,chaise,True,1321,#FF0000,#FFFFFF,True,fenêtre|forêt|chien|chaise
1ba4fd5f-4527-463f-a1f3-133b165710cb,a92f43e4-c5f5-4a24-8df7-62f5a2c8310c,2025-10-10T18:05:30.679240,8,colored_bg,table,table,True,1226,#8B00FF,#44FF44,True,école|arbre|forêt|table
3117e931-a65a-447a-a94b-b51096506b3b,6c67e890-4f9e-4e72-9453-fad106023fc1,2025-10-10T18:05:33.759154,7,color,glumix,glumix,True,889,#00C800,#FFFFFF,False,prixel|glumix|glopek|flumig
1ba4fd5f-4527-463f-a1f3-133b165710cb,a92f43e4-c5f5-4a24-8df7-62f5a2c8310c,2025-10-10T18:05:35.271843,9,colored_bg,krimol,krimol,True,1376,#0000FF,#FF4444,False,blixor|krenov|krimol|braxon
3117e931-a65a-447a-a94b-b51096506b3b,6c67e890-4f9e-4e72-9453-fad106023fc1,2025-10-10T18:05:38.105733,8,color,école,école,True,1146,#0000FF,#FFFFFF,True,table|hôpital|école|forêt
1ba4fd5f-4527-463f-a1f3-133b165710cb,a92f43e4-c5f5-4a24-8df7-62f5a2c8310c,2025-10-10T18:05:39.615651,10,colored_bg,blomek,blomek,True,1127,#00C800,#4444FF,False,blixor|blomek|kraxon|glopek
3117e931-a65a-447a-a94b-b51096506b3b,6c67e890-4f9e-4e72-9453-fad106023fc1,2025-10-10T18:05:42.368670,9,color,vokrim,vraliq,False,1074,#FF6600,#FFFFFF,False,vraliq|quilmex|vokrim|tralux
3117e931-a65a-447a-a94b-b51096506b3b,6c67e890-4f9e-4e72-9453-fad106023fc1,2025-10-10T18:05:47.534930,10,color,blixor,blixor,True,1981,#FF0000,#FFFFFF,False,vextor|braxon|prixel|blixor
3117e931-a65a-447a-a94b-b51096506b3b,6c67e890-4f9e-4e72-9453-fad106023fc1,2025-10-10T18:06:01.530576,1,colored_bg,table,table,True,1898,#0000FF,#44FFFF,True,arbre|table|forêt|école
1ba4fd5f-4527-463f-a1f3-133b165710cb,a92f43e4-c5f5-4a24-8df7-62f5a2c8310c,2025-10-10T18:06:05.713918,1,bw,kraxon,kraxon,true,2649,#000000,#FFFFFF,false,kraxon|braxon|krenov|tralux
1ba4fd5f-4527-463f-a1f3-133b165710cb,a92f43e4-c5f5-4a24-8df7-62f5a2c8310c,2025-10-10T18:06:05.758250,2,bw,montagne,montagne,true,1200,#000000,#FFFFFF,true,montagne|oiseau|maison|lune
1ba4fd5f-4527-463f-a1f3-133b165710cb,a92f43e4-c5f5-4a24-8df7-62f5a2c8310c,2025-10-10T18:06:05.801474,3,bw,prixel,prixel,true,1500,#000000,#FFFFFF,false,prixel|frunez|blixor|drixel
1ba4fd5f-4527-463f-a1f3-133b165710cb,a92f43e4-c5f5-4a24-8df7-62f5a2c8310c,2025-10-10T18:06:05.842063,4,bw,vraliq,vraliq,true,1263,#000000,#FFFFFF,false,vraliq|tralux|zephiq|vokrim
1ba4fd5f-4527-463f-a1f3-133b165710cb,a92f43e4-c5f5-4a24-8df7-62f5a2c8310c,2025-10-10T18:06:05.882082,5,bw,vextor,vextor,true,1314,#000000,#FFFFFF,false,blixor|gextom|vextor|tralux
1ba4fd5f-4527-463f-a1f3-133b165710cb,a92f43e4-c5f5-4a24-8df7-62f5a2c8310c,2025-10-10T18:06:05.925879,6,bw,hôpital,hôpital,true,1117,#000000,#FFFFFF,true,voiture|hôpital|maison|montagne
1ba4fd5f-4527-463f-a1f3-133b165710cb,a92f43e4-c5f5-4a24-8df7-62f5a2c8310c,2025-10-10T18:06:05.964680,7,bw,prixel,prixel,true,1163,#000000,#FFFFFF,false,blixor|prixel|frunez|drixel
1ba4fd5f-4527-463f-a1f3-133b165710cb,a92f43e4-c5f5-4a24-8df7-62f5a2c8310c,2025-10-10T18:06:06.004441,8,bw,soleil,soleil,true,1171,#000000,#FFFFFF,true,chat|soleil|forêt|voiture
3117e931-a65a-447a-a94b-b51096506b3b,6c67e890-4f9e-4e72-9453-fad106023fc1,2025-10-10T18:06:06.007234,2,colored_bg,magasin,magasin,True,1278,#00C800,#FF8800,True,poisson|magasin|jardin|maison
1ba4fd5f-4527-463f-a1f3-133b165710cb,a92f43e4-c5f5-4a24-8df7-62f5a2c8310c,2025-10-10T18:06:06.046513,9,bw,chien,chien,true,1136,#000000,#FFFFFF,true,livre|chien|chat|pomme
1ba4fd5f-4527-463f-a1f3-133b165710cb,a92f43e4-c5f5-4a24-8df7-62f5a2c8310c,2025-10-10T18:06:06.087023,10,bw,fleur,fleur,true,1243,#000000,#FFFFFF,true,montagne|hôpital|soleil|fleur
1ba4fd5f-4527-463f-a1f3-133b165710cb,a92f43e4-c5f5-4a24-8df7-62f5a2c8310c,2025-10-10T18:06:06.125354,1,color,chien,chien,true,2273,#FF6600,#FFFFFF,true,chat|chien|forêt|porte
1ba4fd5f-4527-463f-a1f3-133b165710cb,a92f43e4-c5f5-4a24-8df7-62f5a2c8310c,2025-10-10T18:06:06.163898,2,color,fenêtre,fenêtre,true,1566,#FF0000,#FFFFFF,true,forêt|voiture|rivière|fenêtre
1ba4fd5f-4527-463f-a1f3-133b165710cb,a92f43e4-c5f5-4a24-8df7-62f5a2c8310c,2025-10-10T18:06:06.207538,3,color,blefox,gextom,false,1253,#FF0000,#FFFFFF,false,blefox|gextom|blixor|braxon
1ba4fd5f-4527-463f-a1f3-133b165710cb,a92f43e4-c5f5-4a24-8df7-62f5a2c8310c,2025-10-10T18:06:06.249524,4,color,porte,porte,true,1413,#FF6600,#FFFFFF,true,forêt|pomme|plage|porte
1ba4fd5f-4527-463f-a1f3-133b165710cb,a92f43e4-c5f5-4a24-8df7-62f5a2c8310c,2025-10-10T18:06:06.296105,5,color,plage,plage,true,1344,#FF6600,#FFFFFF,true,forêt|pomme|porte|plage
1ba4fd5f-4527-463f-a1f3-133b165710cb,a92f43e4-c5f5-4a24-8df7-62f5a2c8310c,2025-10-10T18:06:06.339162,6,color,drixel,drixel,true,1437,#FF6600,#FFFFFF,false,frunez|prixel|blixor|drixel
1ba4fd5f-4527-463f-a1f3-133b165710cb,a92f43e4-c5f5-4a24-8df7-62f5a2c8310c,2025-10-10T18:06:06.384285,7,color,porte,porte,true,1350,#8B00FF,#FFFFFF,true,plage|forêt|pomme|porte
1ba4fd5f-4527-463f-a1f3-133b165710cb,a92f43e4-c5f5-4a24-8df7-62f5a2c8310c,2025-10-10T18:06:06.436589,8,color,braxon,braxon,true,2018,#8B00FF,#FFFFFF,false,blixor|braxon|kraxon|tralux
1ba4fd5f-4527-463f-a1f3-133b165710cb,a92f43e4-c5f5-4a24-8df7-62f5a2c8310c,2025-10-10T18:06:06.485625,9,color,fleur,fleur,true,1442,#FF0000,#FFFFFF,true,forêt|maison|chien|fleur
1ba4fd5f-4527-463f-a1f3-133b165710cb,a92f43e4-c5f5-4a24-8df7-62f5a2c8310c,2025-10-10T18:06:06.545421,10,color,montagne,montagne,true,1342,#8B00FF,#FFFFFF,true,soleil|montagne|lune|forêt
1ba4fd5f-4527-463f-a1f3-133b165710cb,a92f43e4-c5f5-4a24-8df7-62f5a2c8310c,2025-10-10T18:06:06.586429,1,colored_bg,maison,maison,true,1293,#FF6600,#44FF44,true,jardin|forêt|poisson|maison
1ba4fd5f-4527-463f-a1f3-133b165710cb,a92f43e4-c5f5-4a24-8df7-62f5a2c8310c,2025-10-10T18:06:06.629441,2,colored_bg,blixor,blixor,true,1167,#0000FF,#44FF44,false,blefox|vextor|blixor|prixel
1ba4fd5f-4527-463f-a1f3-133b165710cb,a92f43e4-c5f5-4a24-8df7-62f5a2c8310c,2025-10-10T18:06:06.675150,3,colored_bg,fenêtre,fenêtre,true,1289,#0000FF,#FF8800,true,forêt|voiture|rivière|fenêtre
1ba4fd5f-4527-463f-a1f3-133b165710cb,a92f43e4-c5f5-4a24-8df7-62f5a2c8310c,2025-10-10T18:06:06.726131,4,colored_bg,chat,chat,true,1496,#00C800,#8844FF,true,table|forêt|chien|chat
1ba4fd5f-4527-463f-a1f3-133b165710cb,a92f43e4-c5f5-4a24-8df7-62f5a2c8310c,2025-10-10T18:06:06.778098,5,colored_bg,lune,lune,true,1175,#00C800,#FF4444,true,fleur|montagne|forêt|lune
1ba4fd5f-4527-463f-a1f3-133b165710cb,a92f43e4-c5f5-4a24-8df7-62f5a2c8310c,2025-10-10T18:06:06.823079,6,colored_bg,vextor,vextor,true,1119,#0000FF,#44FFFF,false,gextom|blixor|vextor|doltex
1ba4fd5f-4527-463f-a1f3-133b165710cb,a92f43e4-c5f5-4a24-8df7-62f5a2c8310c,2025-10-10T18:06:06.882239,7,colored_bg,krimol,krimol,true,1277,#00C800,#FF44FF,false,krimol|krenov|braxon|blixor
1ba4fd5f-4527-463f-a1f3-133b165710cb,a92f43e4-c5f5-4a24-8df7-62f5a2c8310c,2025-10-10T18:06:06.928184,8,colored_bg,table,table,true,1226,#8B00FF,#44FF44,true,école|arbre|forêt|table
1ba4fd5f-4527-463f-a1f3-133b165710cb,a92f43e4-c5f5-4a24-8df7-62f5a2c8310c,2025-10-10T18:06:06.973542,9,colored_bg,krimol,krimol,true,1376,#0000FF,#FF4444,false,blixor|krenov|krimol|braxon
1ba4fd5f-4527-463f-a1f3-133b165710cb,a92f43e4-c5f5-4a24-8df7-62f5a2c8310c,2025-10-10T18:06:07.024554,10,colored_bg,blomek,blomek,true,1127,#00C800,#4444FF,false,blixor|blomek|kraxon|glopek
3117e931-a65a-447a-a94b-b51096506b3b,6c67e890-4f9e-4e72-9453-fad106023fc1,2025-10-10T18:06:10.932776,3,colored_bg,école,école,True,1738,#FF6600,#4444FF,True,forêt|école|poisson|table
3117e931-a65a-447a-a94b-b51096506b3b,6c67e890-4f9e-4e72-9453-fad106023fc1,2025-10-10T18:06:15.483303,4,colored_bg,glumix,glumix,True,1359,#FF0000,#8844FF,False,glopek|glumix|kraxon|flumig
3117e931-a65a-447a-a94b-b51096506b3b,6c67e890-4f9e-4e72-9453-fad106023fc1,2025-10-10T18:06:19.924800,5,colored_bg,frunez,frunez,True,1250,#0000FF,#FF8800,False,frunez|krenov|tronez|flumig
3117e931-a65a-447a-a94b-b51096506b3b,6c67e890-4f9e-4e72-9453-fad106023fc1,2025-10-10T18:06:24.118623,6,colored_bg,table,arbre,False,1006,#8B00FF,#FF44FF,True,arbre|table|forêt|école
3117e931-a65a-447a-a94b-b51096506b3b,6c67e890-4f9e-4e72-9453-fad106023fc1,2025-10-10T18:06:30.705257,7,colored_bg,montagne,forêt,False,3396,#00C800,#FF4444,True,montagne|lune|forêt|magasin
3117e931-a65a-447a-a94b-b51096506b3b,6c67e890-4f9e-4e72-9453-fad106023fc1,2025-10-10T18:06:35.909515,8,colored_bg,quilmex,quilmex,True,1949,#00C800,#8844FF,False,quilmex|gextom|krenov|doltex
3117e931-a65a-447a-a94b-b51096506b3b,6c67e890-4f9e-4e72-9453-fad106023fc1,2025-10-10T18:06:40.725179,9,colored_bg,jardin,jardin,True,1632,#FF6600,#8844FF,True,maison|magasin|jardin|forêt
3117e931-a65a-447a-a94b-b51096506b3b,6c67e890-4f9e-4e72-9453-fad106023fc1,2025-10-10T18:06:45.070476,10,colored_bg,prixel,drixel,False,1144,#FF0000,#4444FF,False,drixel|frunez|blixor|prixel
3117e931-a65a-447a-a94b-b51096506b3b,6c67e890-4f9e-4e72-9453-fad106023fc1,2025-10-10T18:07:03.604841,1,bw,arbre,arbre,true,11582,#000000,#FFFFFF,true,arbre|voiture|table|livre
3117e931-a65a-447a-a94b-b51096506b3b,6c67e890-4f9e-4e72-9453-fad106023fc1,2025-10-10T18:07:03.675020,2,bw,voiture,poisson,false,15701,#000000,#FFFFFF,true,poisson|voiture|rivière|livre
3117e931-a65a-447a-a94b-b51096506b3b,6c67e890-4f9e-4e72-9453-fad106023fc1,2025-10-10T18:07:03.728097,3,bw,montagne,montagne,true,4360,#000000,#FFFFFF,true,lune|école|plage|montagne
3117e931-a65a-447a-a94b-b51096506b3b,6c67e890-4f9e-4e72-9453-fad106023fc1,2025-10-10T18:07:03.782101,4,bw,maison,maison,true,2672,#000000,#FFFFFF,true,poisson|magasin|jardin|maison
3117e931-a65a-447a-a94b-b51096506b3b,6c67e890-4f9e-4e72-9453-fad106023fc1,2025-10-10T18:07:03.832632,5,bw,krimol,blixor,false,1563,#000000,#FFFFFF,false,braxon|krenov|krimol|blixor
3117e931-a65a-447a-a94b-b51096506b3b,6c67e890-4f9e-4e72-9453-fad106023fc1,2025-10-10T18:07:03.883491,6,bw,école,école,true,1702,#000000,#FFFFFF,true,fleur|table|poisson|école
3117e931-a65a-447a-a94b-b51096506b3b,6c67e890-4f9e-4e72-9453-fad106023fc1,2025-10-10T18:07:03.938022,7,bw,krenov,krenov,true,1072,#000000,#FFFFFF,false,frunez|braxon|krenov|krimol
3117e931-a65a-447a-a94b-b51096506b3b,6c67e890-4f9e-4e72-9453-fad106023fc1,2025-10-10T18:07:03.990003,8,bw,fenêtre,fenêtre,true,885,#000000,#FFFFFF,true,fenêtre|table|rivière|voiture
3117e931-a65a-447a-a94b-b51096506b3b,6c67e890-4f9e-4e72-9453-fad106023fc1,2025-10-10T18:07:04.043619,9,bw,lune,lune,true,1099,#000000,#FFFFFF,true,poisson|lune|soleil|montagne
3117e931-a65a-447a-a94b-b51096506b3b,6c67e890-4f9e-4e72-9453-fad106023fc1,2025-10-10T18:07:04.094400,10,bw,kraxon,kraxon,true,1235,#000000,#FFFFFF,false,tralux|blixor|krenov|kraxon
3117e931-a65a-447a-a94b-b51096506b3b,6c67e890-4f9e-4e72-9453-fad106023fc1,2025-10-10T18:07:04.156446,1,color,blefox,krimol,false,1500,#0000FF,#FFFFFF,false,blefox|braxon|krimol|blixor
3117e931-a65a-447a-a94b-b51096506b3b,6c67e890-4f9e-4e72-9453-fad106023fc1,2025-10-10T18:07:04.221267,2,color,prixel,blixor,false,1498,#8B00FF,#FFFFFF,false,frunez|prixel|drixel|blixor
3117e931-a65a-447a-a94b-b51096506b3b,6c67e890-4f9e-4e72-9453-fad106023fc1,2025-10-10T18:07:04.287376,3,color,tralux,blomek,false,9710,#00C800,#FFFFFF,false,tronez|braxon|tralux|blomek
3117e931-a65a-447a-a94b-b51096506b3b,6c67e890-4f9e-4e72-9453-fad106023fc1,2025-10-10T18:07:04.344878,4,color,forêt,forêt,true,1643,#FF0000,#FFFFFF,true,rivière|pomme|forêt|porte
3117e931-a65a-447a-a94b-b51096506b3b,6c67e890-4f9e-4e72-9453-fad106023fc1,2025-10-10T18:07:04.395390,5,color,magasin,magasin,true,1367,#00C800,#FFFFFF,true,poisson|forêt|magasin|maison
3117e931-a65a-447a-a94b-b51096506b3b,6c67e890-4f9e-4e72-9453-fad106023fc1,2025-10-10T18:07:04.456615,6,color,chaise,chaise,true,1321,#FF0000,#FFFFFF,true,fenêtre|forêt|chien|chaise
3117e931-a65a-447a-a94b-b51096506b3b,6c67e890-4f9e-4e72-9453-fad106023fc1,2025-10-10T18:07:04.511111,7,color,glumix,glumix,true,889,#00C800,#FFFFFF,false,prixel|glumix|glopek|flumig
3117e931-a65a-447a-a94b-b51096506b3b,6c67e890-4f9e-4e72-9453-fad106023fc1,2025-10-10T18:07:04.581749,8,color,école,école,true,1146,#0000FF,#FFFFFF,true,table|hôpital|école|forêt
3117e931-a65a-447a-a94b-b51096506b3b,6c67e890-4f9e-4e72-9453-fad106023fc1,2025-10-10T18:07:04.644234,9,color,vokrim,vraliq,false,1074,#FF6600,#FFFFFF,false,vraliq|quilmex|vokrim|tralux
3117e931-a65a-447a-a94b-b51096506b3b,6c67e890-4f9e-4e72-9453-fad106023fc1,2025-10-10T18:07:04.704984,10,color,blixor,blixor,true,1981,#FF0000,#FFFFFF,false,vextor|braxon|prixel|blixor
3117e931-a65a-447a-a94b-b51096506b3b,6c67e890-4f9e-4e72-9453-fad106023fc1,2025-10-10T18:07:04.759543,1,colored_bg,table,table,true,1898,#0000FF,#44FFFF,true,arbre|table|forêt|école
3117e931-a65a-447a-a94b-b51096506b3b,6c67e890-4f9e-4e72-9453-fad106023fc1,2025-10-10T18:07:04.824014,2,colored_bg,magasin,magasin,true,1278,#00C800,#FF8800,true,poisson|magasin|jardin|maison
3117e931-a65a-447a-a94b-b51096506b3b,6c67e890-4f9e-4e72-9453-fad106023fc1,2025-10-10T18:07:04.883803,3,colored_bg,école,école,true,1738,#FF6600,#4444FF,true,forêt|école|poisson|table
3117e931-a65a-447a-a94b-b51096506b3b,6c67e890-4f9e-4e72-9453-fad106023fc1,2025-10-10T18:07:04.945744,4,colored_bg,glumix,glumix,true,1359,#FF0000,#8844FF,false,glopek|glumix|kraxon|flumig
3117e931-a65a-447a-a94b-b51096506b3b,6c67e890-4f9e-4e72-9453-fad106023fc1,2025-10-10T18:07:05.003794,5,colored_bg,frunez,frunez,true,1250,#0000FF,#FF8800,false,frunez|krenov|tronez|flumig
3117e931-a65a-447a-a94b-b51096506b3b,6c67e890-4f9e-4e72-9453-fad106023fc1,2025-10-10T18:07:05.056280,6,colored_bg,table,arbre,false,1006,#8B00FF,#FF44FF,true,arbre|table|forêt|école
3117e931-a65a-447a-a94b-b51096506b3b,6c67e890-4f9e-4e72-9453-fad106023fc1,2025-10-10T18:07:05.113976,7,colored_bg,montagne,forêt,false,3396,#00C800,#FF4444,true,montagne|lune|forêt|magasin
3117e931-a65a-447a-a94b-b51096506b3b,6c67e890-4f9e-4e72-9453-fad106023fc1,2025-10-10T18:07:05.157660,8,colored_bg,quilmex,quilmex,true,1949,#00C800,#8844FF,false,quilmex|gextom|krenov|doltex
3117e931-a65a-447a-a94b-b51096506b3b,6c67e890-4f9e-4e72-9453-fad106023fc1,2025-10-10T18:07:05.200569,9,colored_bg,jardin,jardin,true,1632,#FF6600,#8844FF,true,maison|magasin|jardin|forêt
3117e931-a65a-447a-a94b-b51096506b3b,6c67e890-4f9e-4e72-9453-fad106023fc1,2025-10-10T18:07:05.255197,10,colored_bg,prixel,drixel,false,1144,#FF0000,#4444FF,false,drixel|frunez|blixor|prixel
test_session,test_participant,2025-12-02T15:44:28.676039,1,test,test_word,test_response,True,500,#000000,#ffffff,True,test_word|choice2|choice3|choice4
